Index,Time,Difference,Hz,AveHz,0x6103 Pressure,0x6103 Acceleration-X,0x6103 Acceleration-Y,0x6103 Acceleration-Z,0x6103 Magnetic-X,0x6103 Magnetic-Y,0x6103 Magnetic-Z,0x6103 Angular-Vel-X,0x6103 Angular-Vel-Y,0x6103 Angular-Vel-Z,0x6103 Heading,0x6103 Roll,0x6103 Pitch,0x6103 Quaternion-X,0x6103 Quaternion-Y,0x6103 Quaternion-Z,0x6103 Quaternion-W,0x6103 Linear-Acceleration-X,0x6103 Linear-Acceleration-Y,0x6103 Linear-Acceleration-Z,0x6103 Gravity-X,0x6103 Gravity-Y,0x6103 Gravity-Z,0x6103 Range,0x6103 Smoothed Range,0x6103 Velocity,
0,0.0010001659393310547,0.0010001659393310547,999.8340882002384,0.0,101933.0,62.0,965.0,-110.0,26.1875,-41.75,-10.75,4.0,-12.375,-5.0,342.5,2.0,-96.1875,0.73931884765625,0.087158203125,0.1015625,0.65997314453125,-49.0,0.0,-39.0,35.0,974.0,-105.0,171,171.0,70988.22026221693,
1,0.04700493812561035,0.0460047721862793,21.736875382207526,21.274360522031113,101933.0,29.0,975.0,-173.0,24.75,-41.0,-9.25,-2.25,0.875,13.75,342.125,2.1875,-96.1875,0.7392578125,0.08673095703125,0.10357666015625,0.65972900390625,-8.0,1.0,-67.0,37.0,974.0,-106.0,6,6.0,-3586.584438064242,
2,0.09700989723205566,0.05000495910644531,19.998016554144257,20.616453135867523,101933.0,147.0,1003.0,-64.0,24.375,-40.5625,-10.5,0.6875,-5.3125,7.375,342.25,2.5,-96.0625,0.73907470703125,0.08221435546875,0.10308837890625,0.66058349609375,104.0,28.0,39.0,42.0,974.0,-103.0,49,49.0,859.914711828203,
3,0.14701485633850098,0.05000495910644531,19.998016554144257,20.40610095276708,101933.0,152.0,1047.0,-158.0,24.0625,-41.375,-9.0,-4.0,-5.75,-2.1875,342.0625,2.3125,-96.0,0.7384033203125,0.08563232421875,0.10406494140625,0.6607666015625,-91.0,-8.0,-11.0,39.0,974.0,-103.0,63,63.0,279.97223175801963,
4,0.19601964950561523,0.04900479316711426,20.406167139402843,20.40611749938577,101933.0,-52.0,984.0,-111.0,25.1875,-40.5,-9.25,4.8125,-49.1875,6.75,344.125,2.25,-96.0,0.73968505859375,0.0728759765625,0.09234619140625,0.66259765625,-52.0,10.0,-30.0,39.0,974.0,-102.0,30,30.0,-673.4035156002939,
5,0.24402451515197754,0.048004865646362305,20.83122172170432,20.489744634411093,101933.0,96.0,982.0,-51.0,25.1875,-40.5,-10.0625,-38.8125,-17.875,5.375,345.375,2.4375,-95.0,0.7347412109375,0.0615234375,0.085693359375,0.67010498046875,47.0,0.0,54.0,42.0,975.0,-85.0,67,67.0,770.7552037030599,
6,0.2950296401977539,0.05100512504577637,19.60587292164296,20.336939691816358,101933.0,12.0,972.0,-9.0,24.75,-41.6875,-11.5625,-59.375,-11.0,27.4375,345.125,3.25,-92.375,0.72003173828125,0.052490234375,0.0894775390625,0.6861572265625,-74.0,-5.0,65.0,55.0,978.0,-41.0,86,86.0,372.51158551121625,
7,0.34203457832336426,0.04700493812561035,21.274360522031113,20.465767041196937,101933.5,124.0,971.0,12.0,22.875,-40.875,-12.75,-14.625,8.1875,16.125,344.3125,4.375,-90.75,0.71044921875,0.042236328125,0.09552001953125,0.6959228515625,40.0,10.0,-3.0,75.0,977.0,-12.0,91,91.0,106.37180261015557,
8,0.3910393714904785,0.04900479316711426,20.406167139402843,20.458298021264063,101933.5,55.0,984.0,25.0,22.5,-40.875,-14.25,5.5,7.4375,-0.875,343.875,4.3125,-90.8125,0.7109375,0.0455322265625,0.09808349609375,0.69488525390625,-22.0,-6.0,36.0,74.0,977.0,-14.0,100,100.0,183.6555042546256,
9,0.4390442371368408,0.048004865646362305,20.83122172170432,20.499073302253343,101933.5,129.0,1079.0,-8.0,22.75,-40.1875,-14.25,6.0625,7.125,-4.8125,343.5,4.625,-91.125,0.712646484375,0.04437255859375,0.10040283203125,0.69287109375,-41.0,-1.0,-33.0,80.0,977.0,-19.0,128,128.0,583.274208207721,
10,0.48904919624328613,0.05000495910644531,19.998016554144257,20.447840578855228,101933.5,44.0,975.0,-30.0,23.1875,-40.75,-14.0,11.6875,-7.9375,-1.0625,343.5625,4.5625,-91.5,0.71514892578125,0.04498291015625,0.09942626953125,0.6904296875,-41.0,-2.0,-9.0,78.0,977.0,-26.0,147,147.0,379.9623145287409,
11,0.5420544147491455,0.053005218505859375,18.86606693055056,20.29316559499037,101933.5,113.0,975.0,-11.0,22.5,-40.25,-14.0,19.25,2.9375,-6.0625,343.8125,4.4375,-92.375,0.72021484375,0.0455322265625,0.0972900390625,0.6854248046875,30.0,2.0,1.0,76.0,976.0,-40.0,152,152.0,94.33033465275278,
12,0.5910592079162598,0.04900479316711426,20.406167139402843,20.302534567230936,101933.5,35.0,958.0,-23.0,23.1875,-40.5625,-14.0,38.75,2.5625,-11.0,344.0,4.0,-93.9375,0.72930908203125,0.05029296875,0.0948486328125,0.67572021484375,2.0,-14.0,-5.0,68.0,975.0,-67.0,147,147.0,-102.03083569701423,
13,0.640064001083374,0.04900479316711426,20.406167139402843,20.310468918727135,101933.5,65.0,973.0,-93.0,22.75,-40.5625,-13.1875,68.8125,2.5,-28.4375,344.6875,2.875,-96.9375,0.74609375,0.06103515625,0.0880126953125,0.65716552734375,-6.0,-10.0,23.0,50.0,972.0,-118.0,105,105.0,-857.0590198549195,
14,0.6900691986083984,0.050005197525024414,19.9979212060819,20.28782045080778,101933.5,79.0,1025.0,-64.0,24.25,-40.875,-9.6875,-10.5625,-1.5625,-8.75,345.8125,1.875,-97.875,0.7510986328125,0.0679931640625,0.08099365234375,0.65167236328125,83.0,5.0,42.0,32.0,970.0,-134.0,171,171.0,1319.8627996014056,
15,0.7380738258361816,0.0480046272277832,20.831325181528314,20.32317022352898,101939.0,-47.0,973.0,-216.0,24.6875,-42.0625,-10.875,9.125,4.0625,-14.4375,345.8125,1.375,-97.9375,0.750732421875,0.07470703125,0.0810546875,0.6513671875,-131.0,18.0,-35.0,23.0,970.0,-135.0,175,175.0,83.32530072611326,
16,0.7910792827606201,0.05300545692443848,18.865982070969455,20.225532824175332,101939.0,-3.0,912.0,-68.0,25.0625,-41.375,-9.0625,-21.9375,20.875,-57.125,346.625,0.3125,-97.125,0.74383544921875,0.0867919921875,0.0758056640625,0.65838623046875,2.0,-28.0,7.0,-1.0,973.0,-119.0,288,288.0,2131.8559740195483,
17,0.8400843143463135,0.04900503158569336,20.4060678596102,20.236064058912994,101939.0,3.0,963.0,-115.0,25.75,-40.1875,-9.5,-8.5625,0.0625,6.4375,346.5,-0.0625,-96.1875,0.73919677734375,0.08746337890625,0.0780029296875,0.6632080078125,-33.0,-13.0,-47.0,0.0,974.0,-105.0,175,175.0,-2305.8856681359525,
18,0.8920893669128418,0.05200505256652832,19.228900859598856,20.177350686614137,101939.0,-47.0,947.0,-79.0,26.0625,-40.25,-10.6875,8.125,-7.0625,-0.4375,346.9375,0.0,-96.375,0.7412109375,0.08447265625,0.075439453125,0.66162109375,-37.0,-22.0,26.0,0.0,974.0,-110.0,208,208.0,634.5537283667621,
19,0.9430944919586182,0.05100512504577637,19.60587292164296,20.14644360878496,101939.0,12.0,989.0,-118.0,26.0,-40.1875,-9.875,-13.5,-5.0625,22.0625,346.875,0.125,-96.25,0.74053955078125,0.07952880859375,0.07513427734375,0.66302490234375,7.0,1.0,9.0,5.0,974.0,-107.0,142,142.0,-1293.9876128284354,
20,0.9950997829437256,0.05200529098510742,19.22881270458359,20.098486948550597,101939.0,-20.0,953.0,-62.0,26.0,-40.5625,-9.5,-0.5,-63.375,6.875,349.4375,0.1875,-97.0,0.74627685546875,0.065673828125,0.06060791015625,0.65960693359375,9.0,18.0,78.0,3.0,973.0,-120.0,142,142.0,0.0,
21,1.0421044826507568,0.04700469970703125,21.274468430449602,20.151530244436906,101939.0,9.0,987.0,-132.0,25.375,-41.375,-10.6875,9.1875,-35.6875,-2.625,352.1875,0.0,-97.4375,0.74981689453125,0.05078125,0.0447998046875,0.65814208984375,11.0,-20.0,-22.0,0.0,972.0,-127.0,100,100.0,-893.5276740788833,
22,1.088108777999878,0.046004295349121094,21.737100686166794,20.218566787448953,101939.0,35.0,969.0,-186.0,24.5625,-41.0,-12.5625,16.5,-0.125,7.4375,352.6875,0.3125,-97.75,0.75238037109375,0.0435791015625,0.04168701171875,0.65594482421875,30.0,-2.0,-52.0,5.0,971.0,-133.0,124,124.0,521.690416468003,
23,1.1421144008636475,0.05400562286376953,18.51659043952745,20.138087727996243,101940.5,43.0,1026.0,-79.0,24.5625,-41.375,-11.5,-5.8125,6.25,32.375,351.5625,1.5,-98.0625,0.75439453125,0.0372314453125,0.04595947265625,0.6536865234375,-57.0,102.0,-97.0,20.0,970.0,-138.0,58,58.0,-1222.0949690088116,
24,1.1911191940307617,0.04900479316711426,20.406167139402843,20.14911699876459,101940.5,-1.0,952.0,-80.0,22.6875,-41.0,-12.5625,-0.3125,5.125,-16.125,351.375,1.4375,-97.875,0.75341796875,0.037109375,0.04913330078125,0.6546630859375,0.0,-6.0,111.0,24.0,970.0,-135.0,105,105.0,959.0898555519336,
25,1.240124225616455,0.04900503158569336,20.4060678596102,20.159270727553697,101940.5,43.0,973.0,-83.0,23.875,-40.5625,-11.75,10.0,-35.0625,17.8125,352.25,1.5,-98.125,0.75482177734375,0.03076171875,0.0440673828125,0.65374755859375,17.0,2.0,54.0,25.0,970.0,-138.0,185,185.0,1632.485428768816,
26,1.2881290912628174,0.048004865646362305,20.83122172170432,20.184312408091724,101940.5,16.0,1015.0,-130.0,23.5,-40.875,-12.5625,13.5625,-10.625,-10.5,354.625,0.9375,-98.5,0.75732421875,0.022216796875,0.03033447265625,0.65191650390625,0.0,45.0,14.0,16.0,969.0,-145.0,213,213.0,583.274208207721,
27,1.3381340503692627,0.05000495910644531,19.998016554144257,20.177350686614137,101940.5,135.0,976.0,-160.0,21.5625,-40.5,-12.1875,5.75,26.1875,21.25,353.875,1.0625,-98.4375,0.7569580078125,0.02606201171875,0.03485107421875,0.6519775390625,117.0,7.0,-15.0,18.0,969.0,-144.0,147,147.0,-1319.869092573521,
28,1.388139009475708,0.05000495910644531,19.998016554144257,20.170890529598644,101940.5,99.0,871.0,-159.0,22.0,-40.0625,-13.0,-22.3125,31.25,-36.875,353.375,0.3125,-98.125,0.75445556640625,0.0389404296875,0.03753662109375,0.65411376953125,93.0,-99.0,-21.0,5.0,970.0,-138.0,203,203.0,1119.8889270320785,
29,1.4391438961029053,0.051004886627197266,19.605964567849295,20.15086891486657,101940.5,-30.0,975.0,-140.0,23.875,-39.75,-11.1875,-15.5625,-6.875,-5.8125,353.1875,0.3125,-97.75,0.75238037109375,0.0396728515625,0.0389404296875,0.6563720703125,-37.0,4.0,-8.0,6.0,971.0,-132.0,133,133.0,-1372.4175197494508,
30,1.4891490936279297,0.050005197525024414,19.9979212060819,20.145732974871372,101937.75,-6.0,996.0,-163.0,23.0625,-38.6875,-11.75,-20.375,8.75,-10.1875,354.125,-0.8125,-97.5,0.75042724609375,0.04913330078125,0.0335693359375,0.65826416015625,7.0,24.0,-34.0,-14.0,972.0,-128.0,157,157.0,479.95010894596567,
31,1.539154052734375,0.05000495910644531,19.998016554144257,20.14093387528502,101937.75,-16.0,1003.0,-47.0,25.0,-39.0625,-11.875,-64.0,1.625,12.9375,353.3125,-0.0625,-95.3125,0.73809814453125,0.0443115234375,0.03912353515625,0.67205810546875,-26.0,143.0,3.0,-1.0,976.0,-91.0,175,175.0,359.96429797459666,
32,1.5891590118408203,0.05000495910644531,19.998016554144257,20.136436795542846,101937.75,-61.0,1147.0,-33.0,23.875,-38.375,-13.0,-16.6875,13.5,19.0,352.25,0.25,-93.5,0.72723388671875,0.04498291015625,0.04400634765625,0.683349609375,-2.0,191.0,57.0,2.0,978.0,-63.0,199,199.0,479.9523972994622,
33,1.6391639709472656,0.05000495910644531,19.998016554144257,20.132214095048372,101937.75,35.0,1136.0,93.0,22.0,-36.75,-13.875,5.0,8.9375,-4.5625,351.375,0.625,-93.3125,0.72607421875,0.045654296875,0.05096435546875,0.6842041015625,25.0,143.0,94.0,12.0,978.0,-56.0,185,185.0,-279.97223175801963,
34,1.688169002532959,0.04900503158569336,20.4060678596102,20.140163661923534,101937.75,85.0,1369.0,-46.0,21.25,-34.375,-13.1875,39.375,18.3125,37.0,350.0,1.25,-94.0,0.7298583984375,0.04705810546875,0.059326171875,0.67938232421875,62.0,391.0,21.0,22.0,978.0,-68.0,185,185.0,0.0,
35,1.7371737957000732,0.04900479316711426,20.406167139402843,20.147667485333645,101937.75,-45.0,1074.0,-176.0,19.75,-34.0625,-11.75,31.375,18.9375,-53.25,350.8125,0.0,-95.5625,0.73834228515625,0.05841064453125,0.053466796875,0.6697998046875,-12.0,242.0,-94.0,0.0,976.0,-95.0,302,302.0,2387.521555310133,
36,1.7891790866851807,0.05200529098510742,19.22881270458359,20.120959532730367,101937.75,49.0,1375.0,-191.0,19.0,-32.75,-10.1875,15.25,0.1875,28.875,349.5625,1.375,-93.9375,0.72967529296875,0.04864501953125,0.06195068359375,0.67919921875,26.0,397.0,-122.0,23.0,977.0,-68.0,555,555.0,4864.889614259648,
37,1.840184211730957,0.05100512504577637,19.60587292164296,20.106682670207345,101937.75,266.0,1133.0,19.0,17.0,-33.0,-10.1875,-57.5625,21.625,-30.3125,348.875,1.9375,-93.375,0.72662353515625,0.0447998046875,0.06610107421875,0.68243408203125,232.0,155.0,78.0,34.0,978.0,-58.0,354,354.0,-3940.780457250235,
38,1.8891892433166504,0.04900503158569336,20.4060678596102,20.11444863685938,101942.75,-146.0,1381.0,-121.0,16.5625,-35.1875,-9.75,-14.75,29.6875,-26.5625,348.5,0.9375,-92.0625,0.717529296875,0.06005859375,0.0692138671875,0.69049072265625,-162.0,402.0,-84.0,16.0,979.0,-36.0,415,415.0,1244.7701394362223,
39,1.9411942958831787,0.05200505256652832,19.228900859598856,20.0907246032558,101942.75,-68.0,1349.0,-10.0,17.0625,-37.5625,-10.1875,3.625,-15.375,51.4375,348.3125,1.125,-91.5625,0.71453857421875,0.058349609375,0.07061767578125,0.693603515625,-88.0,369.0,16.0,19.0,980.0,-27.0,494,494.0,1519.0831679083094,
40,1.993199348449707,0.05200505256652832,19.228900859598856,20.068238548799272,101942.75,-60.0,1301.0,-102.0,15.875,-38.375,-10.5,-14.5,17.1875,-10.875,347.25,2.0,-92.3125,0.71929931640625,0.0540771484375,0.07672119140625,0.6883544921875,-95.0,277.0,-26.0,35.0,979.0,-39.0,443,443.0,-980.6739438395415,
41,2.0452048778533936,0.05200552940368652,19.228724550376615,20.04689136231319,101942.75,-138.0,1003.0,-22.0,17.0625,-40.875,-10.6875,-28.5625,15.8125,27.3125,346.5625,1.625,-90.8125,0.70941162109375,0.06231689453125,0.0819091796875,0.697265625,-118.0,70.0,-40.0,28.0,980.0,-13.0,494,494.0,980.6649520692074,
42,2.092209577560425,0.04700469970703125,21.274468430449602,20.074470765482864,101942.75,312.0,1113.0,76.0,17.1875,-41.0,-12.5,34.8125,7.4375,-9.625,345.375,2.0,-90.0625,0.70465087890625,0.064697265625,0.08984375,0.70086669921875,213.0,154.0,-23.0,35.0,980.0,-1.0,579,579.0,1808.329816588216,
43,2.140213966369629,0.0480043888092041,20.831428642379993,20.091449114753427,101942.75,-105.0,911.0,-72.0,18.1875,-42.0625,-15.0,-21.875,31.375,-26.9375,346.25,0.0,-91.0625,0.7088623046875,0.08502197265625,0.083740234375,0.69512939453125,-31.0,-54.0,-83.0,0.0,980.0,-19.0,649,649.0,1458.2000049665996,
44,2.1932194232940674,0.05300545692443848,18.865982070969455,20.061832178157065,101942.75,-23.0,837.0,114.0,20.75,-41.6875,-17.5,-34.5625,12.125,21.1875,343.625,1.3125,-88.625,0.69366455078125,0.08294677734375,0.10174560546875,0.708251953125,-36.0,-189.0,66.0,23.0,980.0,23.0,714,714.0,1226.2888346130146,
45,2.245224714279175,0.05200529098510742,19.22881270458359,20.042537263111843,101936.25,-192.0,981.0,-67.0,20.5625,-40.75,-19.6875,-5.3125,-11.0,-76.1875,345.0625,0.25,-88.3125,0.6915283203125,0.0870361328125,0.0931396484375,0.71099853515625,-26.0,-39.0,-49.0,4.0,980.0,27.0,798,798.0,1615.2202671850216,
46,2.296229600906372,0.051004886627197266,19.605964567849295,20.032839913675353,101936.25,51.0,711.0,37.0,20.75,-41.0,-22.1875,-6.625,16.0625,40.75,344.875,-0.1875,-87.25,0.68377685546875,0.09344482421875,0.09515380859375,0.7174072265625,23.0,-208.0,-65.0,-3.0,979.0,46.0,933,933.0,2646.805216659655,
47,2.3452346324920654,0.04900503158569336,20.4060678596102,20.040638727075855,101936.25,-56.0,844.0,93.0,19.875,-38.375,-24.375,1.0,-4.375,-15.625,344.6875,0.0,-86.3125,0.67791748046875,0.09100341796875,0.0970458984375,0.7230224609375,-151.0,-185.0,8.0,0.0,978.0,63.0,961,961.0,571.3699000690856,
48,2.396239757537842,0.05100512504577637,19.60587292164296,20.031384526112877,101936.25,16.0,893.0,40.0,15.25,-37.5,-27.6875,1.9375,30.125,-46.625,345.375,-1.5625,-86.75,0.6788330078125,0.10614013671875,0.09210205078125,0.720703125,43.0,-85.0,-5.0,-27.0,978.0,54.0,1093,1093.0,2587.975225656871,
49,2.447244882583618,0.05100512504577637,19.60587292164296,20.02251607459465,101936.25,-110.0,740.0,210.0,12.1875,-39.1875,-26.75,-8.125,26.75,-5.4375,344.5625,-1.875,-85.8125,0.67138671875,0.1136474609375,0.09832763671875,0.7257080078125,-78.0,-236.0,138.0,-32.0,977.0,71.0,1107,1107.0,274.48222090300146,
50,2.4972498416900635,0.05000495910644531,19.998016554144257,20.022025495919745,101936.25,250.0,819.0,-46.0,10.6875,-43.75,-28.5,41.0,42.6875,-57.5,344.0625,-3.5625,-86.5625,0.67181396484375,0.13702392578125,0.10064697265625,0.720947265625,311.0,-157.0,-105.0,-61.0,977.0,58.0,1223,1223.0,2319.769920280734,
51,2.54825496673584,0.05100512504577637,19.60587292164296,20.013695907881583,101936.25,-112.0,793.0,-129.0,15.25,-46.375,-27.375,72.875,10.75,-9.875,346.0,-6.125,-89.625,0.6824951171875,0.15899658203125,0.08697509765625,0.7039794921875,-8.0,-181.0,-146.0,-104.0,974.0,17.0,1317,1317.0,1842.9520546344381,
52,2.6012604236602783,0.05300545692443848,18.865982070969455,19.990309131305626,101936.25,-119.0,589.0,25.0,23.0625,-46.375,-25.875,2.0,70.3125,25.8125,345.0,-6.3125,-89.5625,0.68560791015625,0.169921875,0.10162353515625,0.70050048828125,136.0,-246.0,85.0,-96.0,975.0,2.0,1372,1372.0,1037.62901390332,
53,2.6532654762268066,0.05200505256652832,19.228900859598856,19.97538522808166,101926.5,-100.0,888.0,-157.0,27.5,-45.6875,-25.0625,-6.0,35.6875,-5.8125,339.25,-3.9375,-89.6875,0.681396484375,0.17694091796875,0.1265869140625,0.6988525390625,21.0,-132.0,-81.0,-73.0,977.0,8.0,1499,1499.0,2442.0704091690545,
54,2.705270528793335,0.05200505256652832,19.228900859598856,19.96103510730451,101926.5,-33.0,794.0,228.0,30.1875,-46.0,-22.875,11.875,29.1875,-46.75,341.25,-6.3125,-88.9375,0.67291259765625,0.19384765625,0.1175537109375,0.7041015625,79.0,-179.0,-47.0,-112.0,973.0,18.0,1588,1588.0,1711.372176504298,
55,2.7552754878997803,0.05000495910644531,19.998016554144257,19.9617062763927,101926.5,-179.0,922.0,-36.0,32.5,-43.0,-22.375,14.8125,83.875,23.4375,337.1875,-6.1875,-88.1875,0.6656494140625,0.215576171875,0.14593505859375,0.6993408203125,-74.0,-52.0,-56.0,-105.0,974.0,20.0,1569,1569.0,-379.9623145287409,
56,2.814281463623047,0.0590059757232666,16.947436047662723,19.89850721182194,101926.5,-101.0,963.0,-243.0,35.0625,-41.0625,-22.6875,15.875,64.9375,-10.4375,333.25,-6.75,-91.1875,0.670654296875,0.24609375,0.1617431640625,0.6807861328125,14.0,-9.0,-223.0,-115.0,973.0,-20.0,1593,1593.0,406.7384651439054,
57,2.8662869930267334,0.05200552940368652,19.228724550376615,19.88635476442968,101926.5,663.0,687.0,211.0,37.25,-40.6875,-17.0,-26.375,234.125,-29.3125,327.5625,-7.375,-91.5,0.6566162109375,0.28692626953125,0.1944580078125,0.6697998046875,789.0,-284.0,237.0,-126.0,972.0,-26.0,1588,1588.0,-96.14362275188307,
58,2.9172918796539307,0.051004886627197266,19.605964567849295,19.881452522632177,101926.5,-302.0,1296.0,-219.0,38.5625,-40.0,-14.375,-93.3125,514.8125,24.9375,303.5,-8.75,-94.6875,0.5867919921875,0.44317626953125,0.3204345703125,0.59710693359375,-152.0,330.0,-139.0,-150.0,965.0,-79.0,1616,1616.0,548.9670078997804,
59,2.964296579360962,0.04700469970703125,21.274468430449602,19.90354150485142,101926.5,-275.0,416.0,332.0,42.875,-38.375,-0.5625,31.375,-88.0625,71.5625,296.0,-8.875,-94.5,0.55474853515625,0.48065185546875,0.3597412109375,0.5760498046875,-124.0,-549.0,408.0,-151.0,965.0,-76.0,1588,1588.0,-595.6851160525889,
60,3.0173017978668213,0.053005218505859375,18.86606693055056,19.885316093477602,101921.75,-50.0,883.0,-194.0,43.1875,-37.5625,14.25,4.6875,-37.5625,-25.1875,295.75,-7.125,-96.5625,0.5775146484375,0.47283935546875,0.353759765625,0.563720703125,71.0,-82.0,-82.0,-122.0,966.0,-112.0,1504,1504.0,-1584.7496221662468,
61,3.0673067569732666,0.05000495910644531,19.998016554144257,19.88715339974444,101921.75,41.0,626.0,-22.0,43.0625,-39.25,15.1875,13.4375,28.5,47.75,296.5,-5.4375,-97.0625,0.5965576171875,0.453369140625,0.34844970703125,0.56317138671875,134.0,-341.0,97.0,-93.0,968.0,-120.0,1569,1569.0,1299.8710760193767,
62,3.11631178855896,0.04900503158569336,20.4060678596102,19.895313500922175,101921.75,-33.0,1198.0,3.0,42.875,-38.6875,11.25,-43.875,266.75,6.6875,283.5,-1.1875,-96.6875,0.5767822265625,0.47509765625,0.4111328125,0.5220947265625,-11.0,224.0,117.0,-21.0,973.0,-114.0,1663,1663.0,1918.170378803359,
63,3.1683170795440674,0.05200529098510742,19.22881270458359,19.884373444423666,101921.75,-299.0,770.0,-461.0,41.0625,-41.0625,13.6875,-86.4375,63.6875,-43.0,278.75,-3.375,-95.375,0.531494140625,0.514404296875,0.43817138671875,0.51080322265625,-240.0,-203.0,-369.0,-58.0,974.0,-92.0,1705,1705.0,807.6101335925108,
64,3.2183220386505127,0.05000495910644531,19.998016554144257,19.886139184143328,101921.75,-162.0,956.0,194.0,37.875,-41.1875,18.875,-33.8125,-35.625,85.3125,282.25,-1.9375,-93.9375,0.5533447265625,0.47796630859375,0.42803955078125,0.53118896484375,-128.0,-21.0,262.0,-33.0,977.0,-67.0,1682,1682.0,-459.9543807453179,
65,3.267326831817627,0.04900479316711426,20.406167139402843,19.893938790274078,101921.75,55.0,1046.0,114.0,38.25,-40.375,18.875,125.8125,35.875,108.25,273.6875,3.625,-92.5,0.55743408203125,0.45989990234375,0.47271728515625,0.5042724609375,-6.0,69.0,158.0,62.0,977.0,-43.0,1668,1668.0,-285.6863399516398,
66,3.3173317909240723,0.05000495910644531,19.998016554144257,19.895507642789966,101921.75,291.0,966.0,-38.0,37.25,-43.5625,17.375,2.9375,3.75,26.125,267.1875,6.375,-93.5,0.558349609375,0.46783447265625,0.49615478515625,0.47247314453125,181.0,-6.0,21.0,109.0,972.0,-60.0,1771,1771.0,2059.7957050768587,
67,3.3683369159698486,0.05100512504577637,19.60587292164296,19.89112184186261,101927.5,-133.0,879.0,-153.0,32.875,-44.875,21.375,51.625,167.0,-132.0625,266.125,3.4375,-95.0,0.5350341796875,0.5072021484375,0.4935302734375,0.46136474609375,-192.0,-95.0,-67.0,58.0,975.0,-85.0,1719,1719.0,-1019.5053919254339,
68,3.417341947555542,0.04900503158569336,20.4060678596102,19.898506220204585,101927.5,27.0,943.0,-259.0,31.875,-44.25,23.1875,30.625,27.5,-15.125,265.0625,1.0625,-96.0625,0.51318359375,0.538330078125,0.492431640625,0.45208740234375,9.0,-31.0,-155.0,18.0,974.0,-104.0,1771,1771.0,1061.1155286997305,
69,3.4663467407226562,0.04900479316711426,20.406167139402843,19.905683176292698,101927.5,0.0,974.0,-39.0,31.5,-40.0625,26.5,-5.5625,149.0,6.1875,260.6875,1.625,-96.5,0.49951171875,0.554443359375,0.50726318359375,0.4310302734375,-27.0,1.0,72.0,28.0,973.0,-111.0,1748,1748.0,-469.3418442062654,
70,3.5133514404296875,0.04700469970703125,21.274468430449602,19.923995986988114,101927.5,-99.0,982.0,-496.0,31.1875,-38.1875,27.1875,-41.6875,-169.875,-118.3125,261.8125,-0.75,-95.5,0.47760009765625,0.56597900390625,0.50775146484375,0.44012451171875,-86.0,6.0,-401.0,-12.0,975.0,-95.0,1743,1743.0,-106.37234215224801,
71,3.5623562335968018,0.04900479316711426,20.406167139402843,19.9306288715302,101927.5,-2.0,690.0,157.0,30.0625,-39.0625,32.75,25.0625,-102.1875,-29.0,276.8125,-6.0625,-94.875,0.49560546875,0.544921875,0.448974609375,0.505859375,101.0,-281.0,241.0,-104.0,971.0,-83.0,1785,1785.0,857.0590198549195,
72,3.611361265182495,0.04900503158569336,20.4060678596102,19.93708042841335,101927.5,-11.0,970.0,-282.0,36.5625,-36.1875,25.6875,23.875,78.1875,129.5,275.5,-4.0,-94.4375,0.50738525390625,0.5303955078125,0.45648193359375,0.50286865234375,56.0,-4.0,-206.0,-68.0,975.0,-76.0,1818,1818.0,673.4002393671367,
73,3.6603660583496094,0.04900479316711426,20.406167139402843,19.943360537255757,101927.5,-29.0,1016.0,-251.0,39.875,-34.0625,23.25,-108.5,-62.8125,-33.375,269.5625,-0.1875,-91.25,0.501953125,0.509033203125,0.49609375,0.49273681640625,-25.0,36.0,-229.0,-3.0,980.0,-21.0,1766,1766.0,-1061.1206912489479,
74,3.7103710174560547,0.05000495910644531,19.998016554144257,19.944097140651095,101927.5,16.0,918.0,-48.0,36.1875,-39.25,24.875,44.0625,-38.0625,-2.9375,278.5,-1.75,-91.1875,0.52703857421875,0.48284912109375,0.456298828125,0.52996826171875,46.0,-61.0,-26.0,-30.0,979.0,-21.0,1752,1752.0,-279.97223175801963,
75,3.759376287460327,0.04900527000427246,20.405968580783583,19.95011785603052,101922.0,-21.0,848.0,114.0,37.0,-38.375,18.25,39.125,-102.9375,-25.4375,283.0625,-2.125,-92.875,0.5447998046875,0.478271484375,0.4344482421875,0.5345458984375,-25.0,-80.0,3.0,-37.0,978.0,-50.0,1776,1776.0,489.743245938806,
76,3.8073806762695312,0.0480043888092041,20.831428642379993,19.96122963844654,101922.0,-147.0,841.0,-18.0,40.25,-38.375,17.5,-126.0625,-1.5625,42.5,283.625,-2.375,-89.625,0.5355224609375,0.458740234375,0.43817138671875,0.5574951171875,-96.0,-191.0,112.0,-41.0,979.0,5.0,1809,1809.0,687.4371451985398,
77,3.8593862056732178,0.05200552940368652,19.228724550376615,19.95135907539173,101922.0,-35.0,1006.0,-81.0,40.6875,-36.875,14.5,21.4375,-84.4375,-2.625,284.625,-1.8125,-90.3125,0.543212890625,0.4539794921875,0.435791015625,0.55816650390625,-4.0,26.0,-79.0,-30.0,980.0,-2.0,1809,1809.0,0.0,
78,3.909391164779663,0.05000495910644531,19.998016554144257,19.951955870447197,101922.0,-35.0,921.0,94.0,40.0,-39.875,14.0625,-52.3125,-66.6875,-19.8125,290.875,-3.375,-90.125,0.55804443359375,0.43560791015625,0.4005126953125,0.58172607421875,-10.0,-27.0,106.0,-55.0,979.0,-11.0,1841,1841.0,639.9365297326162,
79,3.9593961238861084,0.05000495910644531,19.998016554144257,19.952537591126973,101922.0,-76.0,1041.0,-245.0,41.0,-38.75,11.0,-20.5,29.375,-3.3125,290.3125,-3.3125,-88.3125,0.550048828125,0.429931640625,0.40765380859375,0.588623046875,-20.0,63.0,-270.0,-56.0,978.0,24.0,1818,1818.0,-459.9543807453179,
80,4.011401176452637,0.05200505256652832,19.228900859598856,19.943156139457887,101922.0,-18.0,1066.0,130.0,43.25,-38.0625,7.5,22.125,20.25,-34.375,291.375,-4.4375,-88.9375,0.546630859375,0.43853759765625,0.40191650390625,0.58935546875,42.0,73.0,122.0,-75.0,977.0,17.0,1832,1832.0,269.20461203438396,
81,4.063406467437744,0.05200529098510742,19.22881270458359,19.934013653100287,101922.0,-83.0,871.0,10.0,42.5625,-37.875,9.0625,93.8125,108.875,-46.0,290.25,-6.625,-92.875,0.5423583984375,0.48046875,0.39404296875,0.5654296875,104.0,-137.0,76.0,-113.0,972.0,-49.0,1902,1902.0,1346.0168893208513,
82,4.1114113330841064,0.048004865646362305,20.83122172170432,19.944489460384172,101922.0,-187.0,1173.0,-276.0,43.6875,-35.1875,12.5,-2.75,6.625,11.5,285.9375,-5.9375,-96.25,0.544189453125,0.508056640625,0.40203857421875,0.53302001953125,-7.0,-34.0,12.0,-102.0,969.0,-106.0,2028,2028.0,2624.7339369347446,
83,4.163416385650635,0.05200505256652832,19.228900859598856,19.935551074368277,101920.75,-175.0,861.0,-192.0,42.5,-32.0625,18.6875,-7.3125,-1.9375,1.5,285.75,-6.25,-96.3125,0.54107666015625,0.51177978515625,0.40264892578125,0.53216552734375,-94.0,-65.0,-71.0,-106.0,968.0,-107.0,2052,2052.0,461.4936206303725,
84,4.215421676635742,0.05200529098510742,19.22881270458359,19.926832104502296,101920.75,-96.0,998.0,-208.0,41.75,-33.6875,19.875,-16.75,-62.25,26.125,286.5625,-5.25,-95.1875,0.54901123046875,0.49371337890625,0.4029541015625,0.540771484375,-21.0,0.0,-177.0,-89.0,972.0,-88.0,1958,1958.0,-1807.5083942308574,
85,4.2644264698028564,0.04900479316711426,20.406167139402843,19.93234039838645,101920.75,-27.0,936.0,-154.0,42.5625,-34.0625,18.6875,-201.0,-138.3125,80.75,289.375,-2.8125,-89.1875,0.55224609375,0.4337158203125,0.41156005859375,0.5810546875,70.0,-261.0,183.0,-48.0,979.0,13.0,1823,1823.0,-2754.832563819384,
86,4.31343150138855,0.04900503158569336,20.4060678596102,19.93772243104254,101920.75,116.0,1268.0,68.0,43.25,-36.6875,14.5,5.625,19.75,59.5625,287.8125,0.5,-87.75,0.56396484375,0.40325927734375,0.42425537109375,0.58251953125,-3.0,85.0,32.0,8.0,979.0,37.0,1794,1794.0,-591.7759679286959,
87,4.365436792373657,0.05200529098510742,19.22881270458359,19.92927721505154,101920.75,-47.0,987.0,-27.0,43.0,-40.375,8.0,2.375,87.3125,-14.375,285.5,-0.4375,-87.75,0.54833984375,0.42401123046875,0.43609619140625,0.5738525390625,-100.0,-115.0,-32.0,-8.0,979.0,38.0,1823,1823.0,557.6355684329241,
88,4.4174418449401855,0.05200505256652832,19.228900859598856,19.921031920498677,101920.75,61.0,1029.0,123.0,40.75,-40.5625,8.25,28.1875,7.6875,4.6875,285.375,-1.0625,-88.6875,0.548095703125,0.4342041015625,0.43328857421875,0.568603515625,79.0,48.0,101.0,-18.0,980.0,21.0,1794,1794.0,-557.6381249283668,
89,4.467446804046631,0.05000495910644531,19.998016554144257,19.921893623754727,101920.75,-50.0,973.0,-162.0,41.5,-38.25,11.0,72.9375,27.875,12.4375,284.0,-0.9375,-92.625,0.56231689453125,0.45501708984375,0.4249267578125,0.54425048828125,-33.0,-5.0,-116.0,-17.0,979.0,-45.0,1804,1804.0,199.98016554144257,
90,4.519451856613159,0.05200505256652832,19.228900859598856,19.9139193989435,101919.0,-52.0,954.0,-53.0,41.6875,-39.0625,13.25,-11.8125,-19.0625,-4.4375,283.75,-0.5625,-93.6875,0.569580078125,0.455810546875,0.42193603515625,0.53826904296875,-42.0,-24.0,10.0,-9.0,978.0,-63.0,1799,1799.0,-96.14450429799427,
91,4.5674567222595215,0.048004865646362305,20.83122172170432,19.923560426201977,101919.0,-5.0,943.0,-101.0,40.6875,-37.75,15.25,29.1875,-26.5625,-16.0,286.375,-1.5,-94.6875,0.5770263671875,0.4560546875,0.40582275390625,0.5426025390625,20.0,-33.0,-21.0,-26.0,977.0,-80.0,1892,1892.0,1937.3036201185018,
92,4.616461992263794,0.04900527000427246,20.405968580783583,19.928681348221296,101919.0,32.0,955.0,56.0,41.6875,-37.6875,13.6875,-33.4375,24.125,26.375,286.0625,-1.3125,-93.125,0.57012939453125,0.45025634765625,0.4132080078125,0.549072265625,55.0,-23.0,110.0,-22.0,978.0,-54.0,1832,1832.0,-1224.358114847015,
93,4.665466785430908,0.04900479316711426,20.406167139402843,19.93369672899952,101919.0,70.0,978.0,20.0,42.5,-37.25,13.6875,47.75,-44.0625,-22.6875,284.125,-0.625,-94.5625,0.5748291015625,0.45806884765625,0.41656494140625,0.53497314453125,81.0,1.0,99.0,-10.0,977.0,-78.0,1850,1850.0,367.3110085092512,
94,4.71247124671936,0.04700446128845215,21.27457633996277,19.947071309016295,101919.0,-191.0,1091.0,-354.0,40.6875,-38.25,14.5,78.25,30.6875,-18.6875,285.25,-1.8125,-96.375,0.5780029296875,0.4710693359375,0.404296875,0.5296630859375,-160.0,117.0,-244.0,-32.0,973.0,-115.0,1897,1897.0,999.9050879782502,
95,4.763476610183716,0.05100536346435547,19.605781276293403,19.94341691463372,101919.0,-70.0,995.0,-255.0,41.6875,-37.5,15.5625,6.4375,17.5,-3.5625,285.875,-1.875,-96.375,0.57989501953125,0.46868896484375,0.401611328125,0.53179931640625,34.0,62.0,-80.0,-32.0,973.0,-109.0,1953,1953.0,1097.9237514724305,
96,4.811481475830078,0.048004865646362305,20.83122172170432,19.9522746751172,101919.0,-116.0,862.0,-4.0,42.0625,-36.375,15.25,-10.4375,-38.375,-16.5625,287.8125,-2.6875,-96.4375,0.581298828125,0.4674072265625,0.39227294921875,0.53826904296875,-70.0,-110.0,105.0,-46.0,973.0,-110.0,1869,1869.0,-1749.822624623163,
97,4.857485771179199,0.046004295349121094,21.737100686166794,19.96917841232345,101919.0,-9.0,1165.0,-118.0,41.375,-34.5,16.375,-1.875,-60.0,42.75,288.125,-2.125,-96.0,0.58477783203125,0.4586181640625,0.3924560546875,0.54193115234375,28.0,190.0,-16.0,-37.0,974.0,-102.0,1837,1837.0,-695.5872219573374,
98,4.9064905643463135,0.04900479316711426,20.406167139402843,19.973542945772778,101920.25,0.0,863.0,-167.0,43.25,-34.5625,15.25,0.6875,-104.125,-50.25,293.1875,-2.3125,-95.75,0.60186767578125,0.4334716796875,0.3690185546875,0.56005859375,40.0,-111.0,-68.0,-40.0,974.0,-98.0,1874,1874.0,755.0281841579052,
99,4.955495834350586,0.04900527000427246,20.405968580783583,19.97781923531248,101920.25,-170.0,899.0,-150.0,42.1875,-37.1875,10.5625,-12.375,-69.5,-12.9375,297.9375,-3.9375,-94.6875,0.60223388671875,0.42205810546875,0.34918212890625,0.58074951171875,-102.0,-75.0,-70.0,-68.0,975.0,-80.0,1837,1837.0,-755.0208374889926,
100,5.0045006275177,0.04900479316711426,20.406167139402843,19.982013679874658,101920.25,29.0,1033.0,56.0,44.5,-36.6875,8.25,-12.9375,11.0625,54.75,299.625,-2.75,-92.375,0.6058349609375,0.39227294921875,0.34783935546875,0.59844970703125,76.0,54.0,96.0,-47.0,978.0,-40.0,1790,1790.0,-959.0898555519336,
101,5.0565056800842285,0.05200505256652832,19.228900859598856,19.97426807959555,101920.25,12.0,1034.0,-113.0,44.75,-37.375,4.0625,36.75,19.5625,-8.0,298.0625,-3.3125,-95.5625,0.61187744140625,0.41754150390625,0.34564208984375,0.5760498046875,69.0,59.0,-17.0,-56.0,974.0,-95.0,1851,1851.0,1172.96295243553,
102,5.109510898590088,0.053005218505859375,18.86606693055056,19.962771784701694,101920.25,-75.0,821.0,-134.0,44.0625,-37.0625,8.0,-113.875,-38.75,21.1875,297.6875,-3.0,-92.0625,0.59527587890625,0.40460205078125,0.3590087890625,0.59417724609375,-23.0,-157.0,-99.0,-52.0,978.0,-35.0,1809,1809.0,-792.3748110831234,
103,5.159515857696533,0.05000495910644531,19.998016554144257,19.963113369707592,101920.25,10.0,1021.0,56.0,44.5,-35.875,6.375,30.0625,9.8125,13.5,297.625,-1.8125,-91.125,0.59906005859375,0.38897705078125,0.36236572265625,0.5987548828125,41.0,41.0,76.0,-31.0,979.0,-19.0,1837,1837.0,559.9444635160393,
104,5.210521221160889,0.05100536346435547,19.605781276293403,19.95961547524973,101920.25,13.0,1011.0,23.0,44.75,-37.375,4.0625,-66.75,-3.1875,10.625,296.125,-1.3125,-90.5625,0.59442138671875,0.38983154296875,0.37176513671875,0.59710693359375,36.0,31.0,33.0,-23.0,980.0,-10.0,1738,1738.0,-1940.9723463530468,
105,5.259526252746582,0.04900503158569336,20.4060678596102,19.963775244047476,101918.5,-31.0,840.0,-67.0,42.5625,-38.5,5.1875,-11.5625,29.4375,-16.75,295.5625,-1.25,-88.8125,0.58392333984375,0.385986328125,0.38055419921875,0.6043701171875,-31.0,-137.0,-127.0,-21.0,980.0,19.0,1771,1771.0,673.4002393671367,
106,5.309531211853027,0.05000495910644531,19.998016554144257,19.964097727378455,101918.5,35.0,1036.0,80.0,44.0625,-39.1875,4.0625,-22.75,15.75,49.6875,293.875,0.3125,-88.0,0.584716796875,0.3753662109375,0.39227294921875,0.602783203125,29.0,56.0,46.0,6.0,980.0,33.0,1771,1771.0,0.0,
107,5.359536170959473,0.05000495910644531,19.998016554144257,19.964414193111917,101918.5,-21.0,1019.0,20.0,42.875,-38.6875,3.0625,7.6875,12.375,-13.1875,291.625,1.1875,-87.8125,0.58221435546875,0.37713623046875,0.4044189453125,0.59600830078125,-42.0,40.0,-16.0,20.0,979.0,36.0,1823,1823.0,1039.8968608155014,
108,5.407540798187256,0.0480046272277832,20.831325181528314,19.972110064561015,101918.5,4.0,972.0,-25.0,40.6875,-40.5625,4.1875,2.5625,26.9375,2.75,291.125,0.5625,-87.4375,0.57427978515625,0.38482666015625,0.408447265625,0.5960693359375,-5.0,-7.0,-69.0,10.0,979.0,43.0,1809,1809.0,-291.6385525413964,
109,5.455545663833618,0.048004865646362305,20.83122172170432,19.979669627291795,101918.5,0.0,941.0,3.0,41.5,-38.6875,4.875,0.375,-3.875,-0.4375,291.125,0.625,-87.1875,0.57330322265625,0.38336181640625,0.4091796875,0.597412109375,-11.0,-38.0,-44.0,10.0,979.0,47.0,1832,1832.0,479.1180995991994,
110,5.504550457000732,0.04900479316711426,20.406167139402843,19.98346656266927,101918.5,-11.0,1009.0,194.0,42.875,-40.1875,4.75,9.0625,-29.75,14.875,291.5625,0.875,-87.25,0.5767822265625,0.37884521484375,0.406982421875,0.59844970703125,-26.0,29.0,148.0,15.0,979.0,46.0,1780,1780.0,-1061.1206912489479,
111,5.554555654525757,0.050005197525024414,19.9979212060819,19.983596691403946,101918.5,53.0,976.0,-100.0,42.0625,-40.75,4.75,37.6875,-2.6875,21.5625,290.75,1.1875,-88.5625,0.58306884765625,0.38427734375,0.4066162109375,0.58905029296875,32.0,-3.0,-124.0,21.0,980.0,24.0,1776,1776.0,-79.9916848243276,
112,5.606560707092285,0.05200505256652832,19.228900859598856,19.976596321934103,101918.5,76.0,1042.0,-2.0,41.6875,-40.375,5.1875,29.5625,9.0,-4.5,290.5625,1.9375,-90.1875,0.59625244140625,0.3828125,0.401611328125,0.5802001953125,25.0,68.0,-29.0,34.0,980.0,-4.0,1804,1804.0,538.4092240687679,
113,5.65656590461731,0.050005197525024414,19.9979212060819,19.97678483826397,101922.0,44.0,1020.0,35.0,42.1875,-40.0,6.0,-36.9375,25.625,-20.3125,290.8125,1.0625,-89.4375,0.5872802734375,0.387939453125,0.403076171875,0.5849609375,-33.0,32.0,-73.0,19.0,980.0,9.0,1809,1809.0,99.98960603040952,
114,5.709571123123169,0.053005218505859375,18.86606693055056,19.966473407838265,101922.0,-24.0,905.0,63.0,42.5,-39.5625,6.375,-9.8125,-22.125,-0.6875,291.9375,0.0,-87.6875,0.57440185546875,0.38787841796875,0.4033203125,0.59747314453125,-21.0,-36.0,71.0,0.0,979.0,38.0,1841,1841.0,603.7141417776179,
115,5.758575916290283,0.04900479316711426,20.406167139402843,19.97021514897104,101922.0,11.0,1007.0,-70.0,43.1875,-38.75,6.0,6.3125,25.625,-3.5,291.4375,0.25,-88.625,0.579345703125,0.390869140625,0.40283203125,0.59100341796875,3.0,29.0,-113.0,4.0,980.0,22.0,1827,1827.0,-285.6863399516398,
116,5.807580947875977,0.04900503158569336,20.4060678596102,19.973892923941943,101922.0,-62.0,955.0,52.0,41.375,-38.0625,6.0,10.375,-9.4375,-5.3125,291.625,0.0,-88.6875,0.57830810546875,0.39288330078125,0.401611328125,0.59149169921875,-16.0,-39.0,42.0,0.0,980.0,21.0,1827,1827.0,0.0,
117,5.856585741043091,0.04900479316711426,20.406167139402843,19.97750996456199,101922.0,49.0,1058.0,12.0,41.75,-38.0625,6.375,-11.375,-2.3125,3.8125,291.4375,0.1875,-88.8125,0.58013916015625,0.39190673828125,0.40216064453125,0.59002685546875,55.0,30.0,-14.0,4.0,980.0,19.0,1813,1813.0,-285.6863399516398,
118,5.906590700149536,0.05000495910644531,19.998016554144257,19.97768357252393,101922.0,-40.0,893.0,6.0,42.0625,-39.1875,6.0,24.625,-10.4375,-14.75,291.8125,-0.1875,-89.0,0.579345703125,0.3948974609375,0.39959716796875,0.590576171875,-45.0,-82.0,-9.0,-3.0,980.0,16.0,1846,1846.0,659.9345462867605,
119,5.95559549331665,0.04900479316711426,20.406167139402843,19.981209290245015,101922.0,-6.0,919.0,-64.0,42.875,-38.375,5.1875,-13.375,4.8125,-1.0,292.0,-0.0625,-89.8125,0.5849609375,0.395751953125,0.395751953125,0.58697509765625,-13.0,-50.0,-51.0,-1.0,980.0,2.0,1785,1785.0,-1244.7761955035735,
120,6.004600524902344,0.04900503158569336,20.4060678596102,19.984676666221958,101922.0,55.0,1040.0,-34.0,42.5,-38.375,6.0,5.75,31.9375,-7.375,291.5625,0.0625,-89.8125,0.58453369140625,0.39593505859375,0.398193359375,0.585693359375,-4.0,32.0,-56.0,1.0,980.0,3.0,1804,1804.0,387.71528933259384,
121,6.051605224609375,0.04700469970703125,21.274468430449602,19.994694879954007,101926.5,-33.0,925.0,42.0,41.0,-39.5625,6.375,6.8125,-8.3125,0.0625,291.875,-0.625,-89.9375,0.58135986328125,0.40252685546875,0.39599609375,0.58587646484375,11.0,60.0,104.0,-11.0,980.0,0.0,1794,1794.0,-212.74468430449602,
122,6.10161018371582,0.05000495910644531,19.998016554144257,19.994722102306312,101926.5,-13.0,940.0,-51.0,42.875,-38.0625,8.0,0.8125,-9.875,15.1875,291.8125,-0.0625,-89.9375,0.58453369140625,0.3973388671875,0.39642333984375,0.58587646484375,-11.0,-39.0,-52.0,-2.0,980.0,0.0,1823,1823.0,579.9424800701835,
123,6.149615049362183,0.048004865646362305,20.83122172170432,20.00125195035698,101926.5,-75.0,962.0,-31.0,41.875,-37.6875,6.0,1.5625,36.5625,-10.375,291.25,-0.1875,-90.125,0.5831298828125,0.4014892578125,0.39849853515625,0.5830078125,-72.0,-17.0,-29.0,-3.0,980.0,-2.0,1729,1729.0,-1958.1348418402063,
124,6.196619749069214,0.04700469970703125,21.274468430449602,20.010909983402787,101926.5,-13.0,987.0,-62.0,42.5625,-38.375,6.75,22.3125,-10.5625,5.5625,291.3125,-0.1875,-90.875,0.58721923828125,0.40399169921875,0.39544677734375,0.57928466796875,-6.0,14.0,-35.0,-3.0,980.0,-15.0,1766,1766.0,787.1553319266353,
125,6.248625040054321,0.05200529098510742,19.22881270458359,20.004400839982765,101926.5,-8.0,1021.0,-34.0,43.25,-38.375,7.5625,8.5625,-14.4375,2.5,291.8125,0.0,-91.3125,0.59259033203125,0.40087890625,0.3914794921875,0.57867431640625,-8.0,40.0,-11.0,0.0,980.0,-23.0,1794,1794.0,538.4067557283405,
126,6.298629999160767,0.05000495910644531,19.998016554144257,20.004350155000107,101926.5,18.0,949.0,-74.0,42.0625,-37.6875,7.0625,-4.875,-1.6875,1.25,292.0,0.125,-91.25,0.59393310546875,0.3980712890625,0.3907470703125,0.57977294921875,16.0,-31.0,-52.0,2.0,980.0,-21.0,1771,1771.0,-459.9543807453179,
127,6.348634958267212,0.05000495910644531,19.998016554144257,20.004300268456955,101926.5,8.0,983.0,-66.0,43.0,-37.6875,6.75,11.1875,6.0625,2.375,291.4375,0.3125,-91.25,0.593017578125,0.399169921875,0.39373779296875,0.57794189453125,2.0,3.0,-45.0,5.0,980.0,-21.0,1762,1762.0,-179.98214898729833,
128,6.397639989852905,0.04900503158569336,20.4060678596102,20.007377752267516,101931.25,16.0,949.0,-37.0,42.5,-38.25,8.25,-2.125,-10.375,1.3125,291.6875,0.3125,-91.375,0.5948486328125,0.39788818359375,0.39215087890625,0.57806396484375,10.0,-31.0,-14.0,6.0,980.0,-23.0,1785,1785.0,469.33956077103466,
129,6.449645042419434,0.05200505256652832,19.228900859598856,20.00110070423483,101931.25,14.0,986.0,-40.0,41.75,-38.75,7.0625,0.9375,-4.25,3.875,291.625,0.4375,-91.4375,0.595703125,0.39715576171875,0.39202880859375,0.57769775390625,13.0,-17.0,-1.0,8.0,980.0,-24.0,1738,1738.0,-903.7583404011461,
130,6.499650001525879,0.05000495910644531,19.998016554144257,20.001076976372694,101931.25,-32.0,950.0,-49.0,42.0625,-38.75,7.0625,-6.75,5.3125,15.375,291.5625,0.6875,-91.375,0.59698486328125,0.3948974609375,0.3924560546875,0.57763671875,0.0,-13.0,-7.0,12.0,980.0,-24.0,1790,1790.0,1039.8968608155014,
131,6.549655199050903,0.050005197525024414,19.9979212060819,20.001052882750674,101931.25,-19.0,983.0,27.0,41.5,-38.75,6.75,-6.625,9.4375,3.375,291.4375,0.8125,-91.1875,0.596435546875,0.39324951171875,0.39398193359375,0.5782470703125,-34.0,2.0,47.0,14.0,980.0,-20.0,1780,1780.0,-199.97921206081904,
132,6.598659992218018,0.04900479316711426,20.406167139402843,20.004061454245445,101931.25,21.0,1014.0,-5.0,42.5625,-38.75,7.0625,11.5625,-2.4375,22.3125,290.625,1.3125,-90.625,0.59368896484375,0.39178466796875,0.3988037109375,0.57879638671875,4.0,-21.0,14.0,19.0,980.0,-11.0,1771,1771.0,-183.6555042546256,
133,6.649665117263794,0.05100512504577637,19.60587292164296,20.00100721684566,101931.25,37.0,991.0,-61.0,41.875,-40.25,7.5625,-1.5,33.4375,1.1875,289.8125,1.75,-90.8125,0.59539794921875,0.391357421875,0.4031982421875,0.57427978515625,7.0,11.0,-46.0,30.0,980.0,-15.0,1766,1766.0,-98.02936460821479,
134,6.695669651031494,0.046004533767700195,21.736988033603343,20.01293477484463,101931.25,5.0,954.0,-51.0,41.5,-40.1875,6.375,-1.5,17.0,0.125,288.9375,1.75,-90.625,0.5914306640625,0.39495849609375,0.4083251953125,0.572265625,-25.0,-25.0,-40.0,30.0,980.0,-11.0,1785,1785.0,413.0027726384635,
135,6.747674942016602,0.05200529098510742,19.22881270458359,20.006891434467065,101931.25,21.0,992.0,-85.0,41.5,-39.75,7.0625,-4.5,-2.5,5.0,288.875,1.75,-90.625,0.59130859375,0.39532470703125,0.40863037109375,0.5718994140625,-8.0,12.0,-74.0,30.0,980.0,-11.0,1785,1785.0,0.0,
136,6.796679735183716,0.04900479316711426,20.406167139402843,20.009770255317743,101928.25,46.0,1002.0,-24.0,41.0625,-40.5,7.0625,1.375,10.625,-1.0625,289.0,1.875,-90.3125,0.590576171875,0.392578125,0.4093017578125,0.57403564453125,14.0,22.0,-19.0,32.0,980.0,-5.0,1743,1743.0,-857.0590198549195,
137,6.846684694290161,0.05000495910644531,19.998016554144257,20.009684411822274,101928.25,35.0,980.0,-62.0,40.75,-40.5,7.0625,0.5625,8.625,1.9375,288.8125,1.8125,-90.375,0.59027099609375,0.39404296875,0.40997314453125,0.57293701171875,3.0,0.0,-55.0,31.0,980.0,-7.0,1813,1813.0,1399.861158790098,
138,6.8976898193359375,0.05100512504577637,19.60587292164296,20.00669841852728,101928.25,2.0,1001.0,-10.0,41.5,-40.1875,7.0625,0.875,-1.625,0.9375,288.5,2.0,-90.1875,0.589599609375,0.3931884765625,0.41204833984375,0.57275390625,-32.0,21.0,-5.0,34.0,980.0,-4.0,1757,1757.0,-1097.9288836120058,
139,6.948695182800293,0.05100536346435547,19.605781276293403,20.00375557472412,101928.25,36.0,972.0,-15.0,40.75,-41.25,7.5625,-13.6875,-10.3125,6.5625,288.6875,2.125,-90.0625,0.59033203125,0.39007568359375,0.41162109375,0.5743408203125,0.0,-7.0,-14.0,37.0,979.0,-1.0,1785,1785.0,548.9618757362152,
140,6.996699810028076,0.0480046272277832,20.831325181528314,20.009433561712033,101928.25,44.0,997.0,-43.0,40.375,-40.1875,7.0625,7.625,-1.25,1.9375,288.6875,2.5625,-89.4375,0.58990478515625,0.3841552734375,0.41387939453125,0.57720947265625,0.0,18.0,-51.0,43.0,979.0,8.0,1780,1780.0,-104.15662590764157,
141,7.0457048416137695,0.04900503158569336,20.4060678596102,20.012192274535437,101928.25,5.0,964.0,9.0,40.375,-40.875,6.375,-1.9375,-3.0,-0.75,289.0625,2.4375,-90.0625,0.59375,0.3848876953125,0.40985107421875,0.57568359375,-36.0,-15.0,10.0,42.0,979.0,-1.0,1752,1752.0,-571.3699000690856,
142,7.093709468841553,0.0480046272277832,20.831325181528314,20.017735519578515,101928.25,25.0,994.0,-63.0,40.0,-40.1875,6.0,-7.0625,11.6875,-1.6875,288.9375,2.5,-90.0,0.5931396484375,0.38525390625,0.4107666015625,0.57537841796875,-17.0,14.0,-62.0,43.0,979.0,0.0,1780,1780.0,583.2771050827928,
143,7.141714334487915,0.048004865646362305,20.83122172170432,20.023203575847532,101928.25,-16.0,934.0,56.0,40.75,-41.75,5.5625,1.0625,-11.75,4.125,289.125,2.375,-89.625,0.59075927734375,0.3846435546875,0.41131591796875,0.57806396484375,-62.0,-42.0,18.0,40.0,979.0,6.0,1729,1729.0,-1062.3923078069204,
144,7.192719459533691,0.05100512504577637,19.60587292164296,20.020244194166807,101924.25,75.0,989.0,-55.0,41.0625,-42.0625,5.5625,-7.0625,6.25,0.125,288.875,2.625,-90.0625,0.59429931640625,0.38397216796875,0.41082763671875,0.57501220703125,29.0,10.0,-54.0,45.0,979.0,-1.0,1715,1715.0,-274.48222090300146,
145,7.239724159240723,0.04700469970703125,21.274468430449602,20.02838738198654,101924.25,21.0,967.0,0.0,40.0,-40.5625,6.375,20.75,-5.3125,-1.5,288.875,2.5,-90.375,0.594970703125,0.38665771484375,0.40972900390625,0.57330322265625,-21.0,-11.0,7.0,43.0,979.0,-6.0,1705,1705.0,-212.74468430449602,
146,7.289729118347168,0.05000495910644531,19.998016554144257,20.028179048867486,101924.25,54.0,977.0,2.0,40.375,-42.0625,6.75,-10.4375,4.625,-0.5625,288.8125,2.3125,-90.25,0.5931396484375,0.38836669921875,0.41021728515625,0.57366943359375,13.0,-2.0,8.0,40.0,979.0,-5.0,1724,1724.0,379.9623145287409,
147,7.340734243392944,0.05100512504577637,19.60587292164296,20.025244767893334,101924.25,23.0,965.0,-18.0,41.5,-40.25,5.5625,3.375,0.6875,-4.4375,288.875,2.25,-90.0,0.5911865234375,0.3883056640625,0.4111328125,0.5750732421875,-15.0,-14.0,-17.0,38.0,979.0,0.0,1724,1724.0,0.0,
148,7.389739036560059,0.04900479316711426,20.406167139402843,20.027770841133027,101924.25,38.0,966.0,-46.0,41.0625,-41.0,6.0,3.625,3.375,2.6875,288.8125,2.25,-90.1875,0.59210205078125,0.38922119140625,0.41058349609375,0.5738525390625,-4.0,-3.0,-44.0,39.0,979.0,-3.0,1710,1710.0,-285.6863399516398,
149,7.438743829727173,0.04900479316711426,20.406167139402843,20.03026363195314,101924.25,46.0,958.0,52.0,40.375,-41.375,5.25,1.75,5.5625,-2.0,288.9375,2.1875,-90.125,0.5919189453125,0.388671875,0.41033935546875,0.57464599609375,1.0,-25.0,60.0,38.0,979.0,-2.0,1719,1719.0,183.6555042546256,
150,7.487748861312866,0.04900503158569336,20.4060678596102,20.032723155955274,101924.25,8.0,880.0,48.0,41.0625,-40.5625,6.375,11.0625,-2.625,6.375,288.5,2.3125,-90.3125,0.59259033203125,0.39031982421875,0.41217041015625,0.57147216796875,-126.0,-180.0,136.0,41.0,979.0,-6.0,1719,1719.0,0.0,
151,7.5347535610198975,0.04700469970703125,21.274468430449602,20.040469642056983,101927.0,346.0,315.0,42.0,39.5625,-40.5625,5.25,159.0,45.125,74.375,283.875,4.9375,-95.375,0.61981201171875,0.4034423828125,0.4149169921875,0.530029296875,247.0,-705.0,83.0,85.0,972.0,-92.0,1776,1776.0,1212.6447005356274,
152,7.584758520126343,0.05000495910644531,19.998016554144257,20.0401897564259,101927.0,30.0,9.0,11.0,38.5,-42.0625,11.0,-76.125,39.3125,-88.9375,284.9375,2.4375,-93.0,0.5941162109375,0.41632080078125,0.419189453125,0.5458984375,-12.0,-969.0,63.0,42.0,978.0,-51.0,1733,1733.0,-859.914711828203,
153,7.634763479232788,0.05000495910644531,19.998016554144257,20.03991353709557,101927.0,90.0,-64.0,-80.0,40.75,-40.25,10.5625,-9.8125,47.25,-67.75,286.9375,-1.5,-90.4375,0.55902099609375,0.43780517578125,0.4190673828125,0.56585693359375,117.0,-1044.0,-72.0,-26.0,980.0,-8.0,1724,1724.0,-179.98214898729833,
154,7.6857688426971436,0.05100536346435547,19.605781276293403,20.037032488470892,101927.0,-85.0,38.0,-129.0,41.0625,-38.0625,11.375,5.1875,38.8125,-64.375,287.8125,-4.4375,-92.5,0.54888916015625,0.46990966796875,0.40716552734375,0.55865478515625,-9.0,-937.0,-85.0,-76.0,976.0,-43.0,1654,1654.0,-1372.4046893405382,
155,7.737773895263672,0.05200505256652832,19.228900859598856,20.031601090705976,101927.0,-118.0,-40.0,-16.0,42.25,-35.875,11.875,-46.875,33.5625,-30.1875,288.125,-6.625,-91.125,0.52618408203125,0.48297119140625,0.41046142578125,0.56689453125,-5.0,-1014.0,3.0,-113.0,973.0,-19.0,1494,1494.0,-3076.6241375358168,
156,7.7897789478302,0.05200505256652832,19.228900859598856,20.026242213644963,101927.0,12.0,-6.0,68.0,42.5,-36.1875,11.0625,1.25,49.25,60.625,284.25,-4.875,-89.6875,0.517822265625,0.4788818359375,0.4349365234375,0.55975341796875,103.0,-983.0,63.0,-84.0,977.0,4.0,1355,1355.0,-2672.8172194842405,
157,7.8387839794158936,0.04900503158569336,20.4060678596102,20.028616735997723,101927.0,23.0,48.0,135.0,39.75,-41.0625,11.5,-3.8125,67.3125,92.9375,275.125,0.3125,-90.5,0.527099609375,0.47601318359375,0.4749755859375,0.51953125,35.0,-896.0,145.0,5.0,980.0,-8.0,1167,1167.0,-3836.340757606718,
158,7.891789436340332,0.05300545692443848,18.865982070969455,20.02080786297176,101927.0,44.0,14.0,99.0,35.6875,-49.1875,9.6875,-21.0625,70.1875,88.75,270.4375,2.9375,-89.75,0.52630615234375,0.47003173828125,0.4989013671875,0.503173828125,-18.0,-962.0,22.0,51.0,979.0,4.0,994,994.0,-3263.8148982777157,
159,7.939794063568115,0.0480046272277832,20.831325181528314,20.025708315228766,101934.5,257.0,182.0,-48.0,27.6875,-50.875,4.5,0.8125,72.75,30.0,260.5,8.0,-89.25,0.52496337890625,0.4674072265625,0.54278564453125,0.459716796875,-203.0,-879.0,-44.0,137.0,970.0,11.0,855,855.0,-2895.5542002324355,
160,7.991799354553223,0.05200529098510742,19.22881270458359,20.020522650989992,101934.5,-98.0,116.0,-113.0,21.6875,-51.0,14.875,61.6875,63.5,-64.3125,258.0,7.125,-89.75,0.50897216796875,0.489013671875,0.55047607421875,0.44586181640625,-39.0,-865.0,0.0,138.0,970.0,15.0,565,565.0,-5576.355684329241,
161,8.040804147720337,0.04900479316711426,20.406167139402843,20.022872966710104,101934.5,33.0,26.0,-18.0,15.1875,-56.375,18.25,89.5,56.25,-112.9375,259.6875,2.25,-93.3125,0.48822021484375,0.53924560546875,0.52667236328125,0.4398193359375,-14.0,-937.0,-43.0,75.0,977.0,-29.0,260,260.0,-6223.880977517868,
162,8.0888090133667,0.048004865646362305,20.83122172170432,20.027670295131973,101934.5,-377.0,1601.0,-428.0,11.6875,-54.0,20.75,34.375,51.0,-91.5625,261.0,-0.5625,-95.0,0.47344970703125,0.56561279296875,0.51336669921875,0.43865966796875,-216.0,-881.0,-341.0,-9.0,976.0,-86.0,2,2.0,-5374.455204199715,
163,8.136813879013062,0.048004865646362305,20.83122172170432,20.03241101783328,101934.5,-573.0,-3388.0,-75.0,16.5,-47.25,24.6875,487.125,308.1875,-683.9375,273.6875,-26.0625,-96.625,0.26177978515625,0.69549560546875,0.45758056640625,0.48828125,-142.0,-4263.0,26.0,-431.0,874.0,-102.0,35,35.0,687.4303168162426,
164,8.186818838119507,0.05000495910644531,19.998016554144257,20.032200936996723,101934.5,-476.0,1932.0,402.0,17.0,-41.875,27.375,373.0625,4.0,-213.0,236.3125,1.5625,-94.0625,0.36297607421875,0.63543701171875,0.60076904296875,0.32171630859375,-404.0,954.0,472.0,26.0,977.0,-69.0,72,72.0,739.9266125033375,
165,8.23482346534729,0.0480046272277832,20.831325181528314,20.03685940498075,101934.5,-509.0,1109.0,470.0,1.5,-36.875,28.875,265.9375,168.0,-12.8125,251.1875,-17.125,-97.5625,0.2354736328125,0.71234130859375,0.53759765625,0.38482666015625,-220.0,181.0,593.0,-289.0,928.0,-123.0,21,21.0,-1062.3975842579441,
166,8.285828590393066,0.05100512504577637,19.60587292164296,20.034206378884942,101934.5,1232.0,2416.0,862.0,7.5,-36.5625,29.25,150.5,-177.4375,389.0,233.125,-1.25,-94.125,0.312744140625,0.662109375,0.609130859375,0.30462646484375,1254.0,1438.0,933.0,-22.0,977.0,-70.0,39,39.0,352.9057125895733,
167,8.383838415145874,0.05000495910644531,19.998016554144257,19.919277034049838,101950.5,3.0,-107.0,30.0,10.5625,-38.0625,35.1875,-61.5,-176.25,126.0,253.75,-6.625,-94.75,0.3699951171875,0.635986328125,0.54168701171875,0.406494140625,117.0,-1077.0,111.0,-113.0,970.0,-81.0,0,0.0,-779.9226456116261,
168,8.432843208312988,0.04900479316711426,20.406167139402843,19.92210644144169,101950.5,709.0,1773.0,695.0,11.0,-39.875,29.875,-72.1875,59.0,130.75,248.875,0.0625,-88.0625,0.39422607421875,0.572509765625,0.5926513671875,0.4068603515625,708.0,793.0,662.0,1.0,980.0,32.0,0,0.0,0.0,
169,8.483848571777344,0.05100536346435547,19.605781276293403,19.920204677179303,101950.5,190.0,746.0,-13.0,9.1875,-42.875,28.75,-88.0,64.75,-59.8125,247.75,-0.4375,-91.8125,0.39569091796875,0.59954833984375,0.57745361328125,0.38800048828125,198.0,-233.0,17.0,-8.0,980.0,-31.0,0,0.0,0.0,
170,8.531853437423706,0.048004865646362305,20.83122172170432,19.9253305564674,101950.5,-14.0,804.0,-115.0,8.75,-41.25,28.375,165.75,50.8125,5.75,245.875,-2.1875,-94.6875,0.375732421875,0.63232421875,0.56854248046875,0.36846923828125,23.0,-171.0,-34.0,-37.0,976.0,-80.0,0,0.0,0.0,
171,8.582858324050903,0.051004886627197266,19.605964567849295,19.923432677529284,101950.5,-121.0,733.0,-302.0,8.875,-40.25,34.1875,-10.9375,25.0625,-157.5625,247.8125,-4.9375,-97.0625,0.3624267578125,0.65576171875,0.54962158203125,0.36956787109375,-36.0,-236.0,-181.0,-84.0,969.0,-120.0,0,0.0,0.0,
172,8.63486361503601,0.05200529098510742,19.22881270458359,19.919249181943528,101950.5,-127.0,919.0,-46.0,9.25,-39.1875,33.0,-21.1875,-9.9375,58.6875,248.1875,-6.4375,-95.0625,0.34228515625,0.65362548828125,0.558837890625,0.37860107421875,-17.0,-51.0,40.0,-110.0,970.0,-87.0,0,0.0,0.0,
173,8.682868242263794,0.0480046272277832,20.831325181528314,19.92429174013304,101945.25,143.0,817.0,44.0,9.6875,-40.0625,31.875,-20.5,-16.4375,127.5,244.25,-2.1875,-93.8125,0.3643798828125,0.63299560546875,0.5782470703125,0.36346435546875,181.0,-160.0,110.0,-37.0,977.0,-65.0,11,11.0,229.14457699681145,
174,8.783878564834595,0.04900503158569336,20.4060678596102,19.809017020862754,101945.25,143.0,1139.0,-242.0,7.6875,-42.5625,29.5625,47.0,8.375,-18.0625,243.625,-0.6875,-94.75,0.3795166015625,0.63067626953125,0.575439453125,0.35650634765625,345.0,307.0,-465.0,-12.0,977.0,-81.0,0,0.0,-224.4667464557122,
175,8.831883430480957,0.048004865646362305,20.83122172170432,19.814573117669653,101945.25,-129.0,995.0,-75.0,7.75,-40.0,33.0,56.25,5.0625,-58.375,246.0,-3.375,-96.5625,0.36865234375,0.6492919921875,0.55780029296875,0.3624267578125,-71.0,23.0,37.0,-58.0,972.0,-112.0,30,30.0,624.9366516511296,
176,8.923892498016357,0.048004865646362305,20.83122172170432,19.722335296970694,101945.25,86.0,909.0,-152.0,9.25,-39.5625,34.1875,29.625,-9.25,121.375,245.4375,-2.875,-96.0,0.36932373046875,0.64483642578125,0.56292724609375,0.36175537109375,136.0,-64.0,-50.0,-49.0,974.0,-102.0,2,2.0,-583.274208207721,
177,8.97189736366272,0.048004865646362305,20.83122172170432,19.728268483862916,101945.25,74.0,915.0,89.0,9.25,-39.1875,32.5625,-129.125,-0.875,-25.5625,243.9375,-1.125,-92.8125,0.37139892578125,0.62200927734375,0.5845947265625,0.36517333984375,94.0,-64.0,137.0,-19.0,979.0,-48.0,35,35.0,687.4303168162426,
178,9.023902416229248,0.05200505256652832,19.228900859598856,19.72539061147999,101945.25,87.0,1033.0,64.0,7.75,-42.0625,31.5,34.4375,15.75,-25.4375,243.8125,-1.375,-93.4375,0.36968994140625,0.62750244140625,0.58154296875,0.3624267578125,111.0,54.0,123.0,-24.0,978.0,-59.0,21,21.0,-269.20461203438396,
179,9.075907707214355,0.05200529098510742,19.22881270458359,19.722545201480457,101954.0,89.0,1076.0,-290.0,7.0,-41.25,33.0,9.4375,19.375,-8.4375,243.6875,-1.8125,-95.8125,0.37109375,0.64300537109375,0.5689697265625,0.35369873046875,121.0,101.0,-190.0,-31.0,974.0,-100.0,21,21.0,0.0,
180,9.172917366027832,0.0480046272277832,20.831325181528314,19.622982832771967,101954.0,21.0,814.0,-16.0,7.75,-41.5625,33.6875,-20.125,3.6875,-18.875,242.1875,-1.4375,-95.3125,0.3656005859375,0.64251708984375,0.57659912109375,0.347900390625,153.0,-114.0,-33.0,-24.0,976.0,-94.0,0,0.0,-437.4578288120946,
181,9.219922065734863,0.04700469970703125,21.274468430449602,19.631402381661413,101954.0,231.0,1010.0,3.0,7.375,-39.75,33.6875,-52.125,1.6875,-17.875,241.9375,-1.3125,-95.125,0.365234375,0.6414794921875,0.57830810546875,0.34735107421875,96.0,170.0,99.0,-19.0,975.0,-96.0,11,11.0,234.01915273494564,
182,9.273927450180054,0.05400538444519043,18.51667218506501,19.624910910475847,101954.0,50.0,1033.0,18.0,7.0,-41.6875,34.0625,-12.0,8.0625,25.8125,240.75,-0.5,-94.125,0.364501953125,0.635009765625,0.58746337890625,0.3446044921875,190.0,169.0,-26.0,-9.0,978.0,-70.0,2,2.0,-166.65004966558507,
183,9.32493257522583,0.05100512504577637,19.60587292164296,19.62480677728312,101954.0,117.0,1029.0,103.0,7.0,-41.25,33.375,-0.5,6.1875,4.375,240.875,-1.0625,-93.4375,0.357177734375,0.63458251953125,0.5908203125,0.34735107421875,45.0,-18.0,95.0,-16.0,978.0,-63.0,67,67.0,1274.3817399067923,
184,9.375937700271606,0.05100512504577637,19.60587292164296,19.62470377706006,101954.0,122.0,960.0,-45.0,5.875,-42.375,32.5625,-13.0,8.4375,-6.6875,239.625,-0.3125,-94.9375,0.362548828125,0.64178466796875,0.586181640625,0.336181640625,128.0,-16.0,39.0,-6.0,976.0,-85.0,39,39.0,-548.9644418060029,
185,9.474947690963745,0.05000495910644531,19.998016554144257,19.525173756519465,101948.25,166.0,1149.0,-101.0,7.375,-42.375,34.0625,15.25,-1.5625,18.6875,239.875,-0.5625,-95.3125,0.36224365234375,0.6446533203125,0.5833740234375,0.33599853515625,177.0,173.0,-10.0,-10.0,976.0,-91.0,0,0.0,-779.9226456116261,
186,9.52395248413086,0.04900479316711426,20.406167139402843,19.529706842817586,101948.25,82.0,1016.0,71.0,5.875,-41.1875,33.6875,-0.9375,1.0,4.0,240.5,-1.375,-95.0,0.35614013671875,0.64569091796875,0.5833740234375,0.34051513671875,106.0,39.0,157.0,-23.0,976.0,-85.0,21,21.0,428.52950992745974,
187,9.622962474822998,0.048004865646362305,20.83122172170432,19.432685151714637,101948.25,304.0,1054.0,-63.0,4.0625,-41.5625,34.875,-7.1875,-2.75,18.4375,239.0625,-0.1875,-95.125,0.36126708984375,0.64373779296875,0.5869140625,0.33258056640625,308.0,77.0,24.0,-3.0,976.0,-88.0,0,0.0,-437.45565615579073,
188,9.673967361450195,0.051004886627197266,19.605964567849295,19.43359874762049,101948.25,109.0,1017.0,-19.0,4.75,-42.25,34.0625,2.25,0.6875,8.875,239.0,-0.125,-94.75,0.36077880859375,0.64141845703125,0.58929443359375,0.33343505859375,111.0,40.0,61.0,-2.0,977.0,-81.0,2,2.0,39.21192913569859,
189,9.774977684020996,0.04900479316711426,20.406167139402843,19.33508250448033,101948.25,117.0,1067.0,-90.0,4.75,-41.5625,34.5,8.75,-1.375,12.625,239.1875,-0.3125,-95.25,0.3614501953125,0.64471435546875,0.58563232421875,0.33282470703125,123.0,91.0,0.0,-5.0,976.0,-90.0,25,25.0,469.3418442062654,
190,9.822982549667358,0.048004865646362305,20.83122172170432,19.34239412920815,101952.5,279.0,1052.0,-78.0,5.875,-41.875,34.875,15.125,-9.5,21.75,239.375,-0.25,-95.5,0.3638916015625,0.64501953125,0.5836181640625,0.33306884765625,284.0,75.0,16.0,-4.0,976.0,-95.0,2,2.0,-479.1180995991994,
191,9.872987508773804,0.05000495910644531,19.998016554144257,19.345714742398336,101952.5,89.0,905.0,-49.0,5.1875,-41.875,36.0625,8.9375,-4.625,10.8125,239.625,-0.1875,-95.25,0.3651123046875,0.64239501953125,0.58465576171875,0.33502197265625,92.0,-70.0,40.0,-3.0,976.0,-90.0,16,16.0,279.97223175801963,
192,9.967997074127197,0.048004865646362305,20.83122172170432,19.26164289296921,101952.5,0.0,910.0,-34.0,6.25,-41.875,34.0625,6.125,-1.4375,1.875,240.0,-0.375,-95.1875,0.36492919921875,0.64215087890625,0.583740234375,0.33709716796875,6.0,-65.0,54.0,-6.0,976.0,-89.0,2,2.0,-291.6371041038605,
193,10.06900691986084,0.053005218505859375,18.86606693055056,19.167729403315118,101952.5,131.0,926.0,-126.0,5.875,-42.25,36.0625,8.3125,-7.1875,-1.0,240.25,-0.0625,-95.1875,0.370361328125,0.64007568359375,0.5819091796875,0.33837890625,140.0,-27.0,-12.0,-2.0,976.0,-91.0,21,21.0,358.4552716804606,
194,10.168016910552979,0.05000495910644531,19.998016554144257,19.07943325690727,101952.5,65.0,989.0,-79.0,5.875,-41.5625,35.6875,13.0,-4.0625,-1.4375,241.5,-0.625,-95.5,0.37176513671875,0.64044189453125,0.57745361328125,0.34381103515625,75.0,13.0,15.0,-10.0,976.0,-94.0,0,0.0,-419.9583476370294,
195,10.217021703720093,0.04900479316711426,20.406167139402843,19.08579678645481,101954.5,192.0,999.0,-76.0,6.6875,-40.75,34.5,-0.1875,-9.125,9.5,241.75,-0.5,-95.5,0.3740234375,0.63897705078125,0.57684326171875,0.34503173828125,202.0,23.0,18.0,-9.0,976.0,-94.0,6,6.0,122.43700283641707,
196,10.270027160644531,0.05300545692443848,18.865982070969455,19.084662283181277,101954.5,99.0,879.0,-58.0,6.6875,-41.5,35.6875,11.4375,-9.75,-0.375,242.0625,-0.375,-95.4375,0.37738037109375,0.63671875,0.57611083984375,0.3468017578125,105.0,-96.0,34.0,-6.0,976.0,-93.0,6,6.0,0.0,
197,10.372037172317505,0.05400514602661133,18.516753931324335,18.993375816834135,101954.5,7.0,886.0,-44.0,6.6875,-40.375,34.5625,10.5625,-7.5,-10.5,243.3125,-0.75,-95.5,0.37982177734375,0.6356201171875,0.57196044921875,0.3529052734375,21.0,-89.0,50.0,-13.0,975.0,-94.0,2,2.0,-74.06701572529734,
198,10.419042110443115,0.04700493812561035,21.274360522031113,19.003666354466745,101954.5,83.0,956.0,-77.0,7.75,-40.375,33.375,-4.375,-10.4375,2.0,243.8125,-0.8125,-95.5,0.38201904296875,0.63421630859375,0.57061767578125,0.35528564453125,98.0,-19.0,16.0,-14.0,976.0,-94.0,6,6.0,85.09744208812445,
199,10.46904706954956,0.05000495910644531,19.998016554144257,19.008415826003365,101954.5,104.0,894.0,-86.0,7.0,-39.6875,34.5625,7.1875,-11.0625,-4.875,244.25,-0.75,-95.5625,0.3856201171875,0.632568359375,0.56866455078125,0.35748291015625,118.0,-81.0,9.0,-13.0,975.0,-95.0,25,25.0,379.9623145287409,
200,10.521052122116089,0.05200505256652832,19.228900859598856,19.009505672876962,101954.5,191.0,975.0,-103.0,7.375,-39.6875,33.6875,-8.875,-9.0,-1.0,244.75,-0.6875,-95.4375,0.3883056640625,0.6298828125,0.56805419921875,0.36029052734375,204.0,0.0,-10.0,-12.0,976.0,-93.0,16,16.0,-173.06010773638968,
201,10.616061687469482,0.0460047721862793,21.736875382207526,18.933574984520625,101957.0,121.0,1009.0,-113.0,7.75,-40.0625,33.0,-1.5,-10.9375,0.9375,245.6875,-0.8125,-95.4375,0.392578125,0.6273193359375,0.56494140625,0.364990234375,135.0,33.0,-20.0,-14.0,976.0,-93.0,0,0.0,-347.7900061153204,
202,10.665066480636597,0.04900479316711426,20.406167139402843,18.940341381532825,101957.0,73.0,906.0,-61.0,8.1875,-40.0625,32.5625,5.3125,-11.5,-1.625,246.0625,-0.625,-95.4375,0.3966064453125,0.625,0.56353759765625,0.3668212890625,84.0,-69.0,32.0,-11.0,976.0,-93.0,0,0.0,0.0,
203,10.719072103500366,0.05400562286376953,18.51659043952745,18.938206408156294,101957.0,217.0,1013.0,-136.0,8.1875,-40.375,31.75,-3.9375,-10.0625,1.0625,246.5,-0.5,-95.375,0.3997802734375,0.6221923828125,0.562744140625,0.3692626953125,226.0,36.0,-44.0,-9.0,976.0,-92.0,0,0.0,0.0,
204,10.76807689666748,0.04900479316711426,20.406167139402843,18.944886998637074,101957.0,95.0,940.0,-46.0,8.5625,-39.6875,31.75,1.3125,-10.375,-6.4375,247.25,-0.75,-95.3125,0.401123046875,0.6212158203125,0.56048583984375,0.37286376953125,109.0,-35.0,45.0,-13.0,976.0,-91.0,0,0.0,0.0,
205,10.819082021713257,0.05100512504577637,19.60587292164296,18.948003128969457,101957.0,66.0,978.0,-85.0,9.0,-39.6875,32.1875,-1.4375,-10.0,-1.5625,247.9375,-0.9375,-95.25,0.40234375,0.6197509765625,0.55877685546875,0.37652587890625,82.0,1.0,4.0,-16.0,976.0,-90.0,16,16.0,313.69396674628734,
206,10.870086908340454,0.051004886627197266,19.605964567849295,18.951090431663367,101957.0,93.0,947.0,-61.0,9.375,-39.6875,32.1875,0.0625,-11.3125,0.25,248.5625,-1.0625,-95.25,0.40472412109375,0.6182861328125,0.55670166015625,0.3795166015625,112.0,-29.0,28.0,-18.0,976.0,-90.0,2,2.0,-274.4835039498902,
207,10.972097396850586,0.05100536346435547,19.605781276293403,18.866037414087934,101957.25,166.0,976.0,-68.0,10.0625,-38.875,31.0625,2.1875,-10.125,-0.9375,249.6875,-1.0625,-95.125,0.41058349609375,0.6136474609375,0.55340576171875,0.3853759765625,184.0,-32.0,42.0,-17.0,976.0,-88.0,0,0.0,-39.211562552586805,
208,11.022102355957031,0.05000495910644531,19.998016554144257,18.871172965254114,101957.25,97.0,996.0,-112.0,10.0625,-38.875,31.0625,-3.625,-8.6875,-4.6875,250.1875,-1.1875,-95.0625,0.41119384765625,0.612548828125,0.55218505859375,0.38836669921875,118.0,20.0,-25.0,-21.0,976.0,-86.0,35,35.0,699.930579395049,
209,11.069107055664062,0.04700469970703125,21.274468430449602,18.8813785022573,101957.25,61.0,948.0,-22.0,9.75,-39.6875,30.6875,-6.75,-8.75,1.1875,250.75,-1.3125,-94.9375,0.4124755859375,0.6109619140625,0.55084228515625,0.391357421875,84.0,-28.0,62.0,-23.0,976.0,-85.0,53,53.0,382.94043174809286,
210,11.12111210823059,0.05200505256652832,19.228900859598856,18.88300360218307,101957.25,160.0,992.0,-144.0,10.75,-39.25,31.25,-0.25,-10.9375,2.25,251.0625,-1.1875,-94.9375,0.415771484375,0.6085205078125,0.54998779296875,0.39288330078125,181.0,15.0,-59.0,-20.0,976.0,-84.0,16,16.0,-711.4693318051576,
211,11.179117918014526,0.05800580978393555,17.239652436969262,18.8744766400563,101957.25,170.0,971.0,-43.0,10.0625,-38.1875,31.25,-5.875,-9.75,-0.5,251.5625,-1.1875,-94.875,0.41864013671875,0.606201171875,0.548095703125,0.39605712890625,210.0,-2.0,8.0,-20.0,976.0,-83.0,49,49.0,568.9085304199857,
212,11.231123208999634,0.05200529098510742,19.22881270458359,18.876117379793488,101957.25,90.0,985.0,-101.0,10.375,-39.25,28.5625,-2.5625,-7.4375,-4.125,252.125,-1.3125,-94.8125,0.41937255859375,0.605224609375,0.54693603515625,0.39837646484375,113.0,9.0,-19.0,-24.0,976.0,-82.0,35,35.0,-269.20337786417025,
213,11.278127908706665,0.04700469970703125,21.274468430449602,18.886113167378156,101957.25,94.0,986.0,-47.0,9.375,-38.5625,29.75,-6.5625,-6.25,1.5625,252.625,-1.5,-94.6875,0.41973876953125,0.60406494140625,0.54583740234375,0.4012451171875,120.0,9.0,32.0,-26.0,977.0,-80.0,6,6.0,-616.9595844830385,
214,11.378137826919556,0.05100512504577637,19.60587292164296,18.80799857193653,101949.75,162.0,971.0,-63.0,9.375,-39.25,29.75,-3.875,-7.5,3.75,252.75,-0.875,-94.5,0.42645263671875,0.59814453125,0.5462646484375,0.4024658203125,178.0,-6.0,14.0,-15.0,977.0,-77.0,49,49.0,843.0525356306473,
215,11.429143190383911,0.05100536346435547,19.605781276293403,18.81155887353775,101949.75,84.0,932.0,-73.0,10.375,-38.5625,30.5625,-2.6875,-5.75,-5.3125,252.625,-0.375,-94.4375,0.43060302734375,0.59478759765625,0.54693603515625,0.40203857421875,91.0,-45.0,3.0,-7.0,977.0,-76.0,53,53.0,78.42312510517361,
216,11.48214840888977,0.053005218505859375,18.86606693055056,18.81181049992067,101949.75,102.0,1002.0,-77.0,10.375,-40.375,29.375,-2.0,-4.5,3.125,252.9375,-0.5,-94.375,0.43072509765625,0.593994140625,0.5462646484375,0.404052734375,111.0,24.0,-1.0,-9.0,977.0,-75.0,11,11.0,-792.3748110831234,
217,11.530153036117554,0.0480046272277832,20.831325181528314,18.82021854525779,101949.75,70.0,920.0,-39.0,11.5625,-39.6875,30.1875,-2.375,-5.75,2.75,252.8125,-0.125,-94.25,0.4337158203125,0.59112548828125,0.5472412109375,0.40374755859375,72.0,-57.0,34.0,-2.0,977.0,-73.0,77,77.0,1374.8674619808687,
218,11.582158327102661,0.05200529098510742,19.22881270458359,18.822053182425616,101949.75,184.0,978.0,-96.0,13.0625,-39.6875,31.0,-2.1875,-5.25,7.625,252.875,0.0,-94.1875,0.43560791015625,0.58892822265625,0.54754638671875,0.4044189453125,183.0,0.0,-24.0,0.0,978.0,-71.0,35,35.0,-807.6101335925108,
219,11.633163213729858,0.051004886627197266,19.605964567849295,18.825490193546727,101949.75,143.0,969.0,-110.0,12.6875,-39.25,30.1875,0.375,-3.625,-4.3125,253.125,0.0,-94.1875,0.43670654296875,0.58831787109375,0.546630859375,0.40545654296875,142.0,-8.0,-38.0,0.0,978.0,-72.0,21,21.0,-274.4835039498902,
