Index,Time,Difference,Hz,AveHz,0x6104 Pressure,0x6104 Acceleration-X,0x6104 Acceleration-Y,0x6104 Acceleration-Z,0x6104 Magnetic-X,0x6104 Magnetic-Y,0x6104 Magnetic-Z,0x6104 Angular-Vel-X,0x6104 Angular-Vel-Y,0x6104 Angular-Vel-Z,0x6104 Heading,0x6104 Roll,0x6104 Pitch,0x6104 Quaternion-X,0x6104 Quaternion-Y,0x6104 Quaternion-Z,0x6104 Quaternion-W,0x6104 Linear-Acceleration-X,0x6104 Linear-Acceleration-Y,0x6104 Linear-Acceleration-Z,0x6104 Gravity-X,0x6104 Gravity-Y,0x6104 Gravity-Z,0x6104 Range,0x6104 Smoothed Range,0x6104 Velocity,
0,0.0010001659393310547,0.0010001659393310547,999.8340882002384,0.0,102459.25,-93.0,-905.0,106.0,0.6875,47.875,17.0,-10.125,-44.5,-17.3125,4.1875,-4.875,87.25,-0.68511962890625,0.08453369140625,-0.02667236328125,0.7230224609375,-9.0,70.0,60.0,-83.0,-975.0,46.0,1020,1068.8000000000002,-2439.5951752085452,
1,0.04900479316711426,0.0480046272277832,20.831325181528314,20.406167139402843,102459.25,-84.0,-848.0,91.0,0.25,47.1875,18.6875,-12.9375,-43.8125,-24.25,3.25,-3.6875,87.6875,-0.68988037109375,0.06451416015625,-0.02044677734375,0.720703125,-21.0,128.0,52.0,-63.0,-977.0,38.0,1049,1064.8400000000001,-1968.174549710607,
2,0.10000991821289062,0.05100512504577637,19.60587292164296,19.998016554144257,102459.25,-16.0,-857.0,-25.0,0.25,47.5625,19.1875,-7.875,-40.9375,-13.375,2.0625,-2.75,88.125,-0.6939697265625,0.04681396484375,-0.0133056640625,0.71832275390625,31.0,121.0,-57.0,-47.0,-978.0,31.0,1030,1057.8720000000003,-1601.8623842720867,
3,0.15201497077941895,0.05200505256652832,19.228900859598856,19.734898376247067,102459.25,-19.0,-838.0,-1.0,0.25,48.6875,18.25,-4.5625,-39.125,-15.1875,0.9375,-2.0,88.25,-0.69586181640625,0.030517578125,-0.006103515625,0.71746826171875,14.0,140.0,-30.0,-34.0,-979.0,29.0,950,1036.2976000000003,-1364.4603071587353,
4,0.20001983642578125,0.048004865646362305,20.83122172170432,19.998016554144257,102459.25,-1.0,-905.0,-3.0,0.0,48.6875,19.1875,-9.6875,-36.25,-7.5,359.6875,-1.5,88.625,-0.69842529296875,0.0166015625,0.00189208984375,0.71551513671875,24.0,74.0,-27.0,-25.0,-980.0,23.0,936,1016.2380800000003,-1175.1411074771809,
5,0.2450244426727295,0.04500460624694824,22.219947765187033,20.406127427369864,102463.0,39.0,-885.0,-58.0,-0.75,49.0625,19.5,-11.375,-36.75,-11.75,358.875,-1.0625,89.0,-0.700927734375,0.0068359375,0.00677490234375,0.71319580078125,58.0,94.0,-75.0,-18.0,-980.0,16.0,988,1010.5904640000003,-965.2108324853115,
6,0.29402923583984375,0.04900479316711426,20.406167139402843,20.406134046031294,102463.0,23.0,-941.0,-39.0,0.0,48.6875,19.875,-15.625,-38.5,-10.5625,357.75,-0.4375,89.6875,-0.70526123046875,-0.008056640625,0.0137939453125,0.70880126953125,28.0,35.0,-39.0,-7.0,-980.0,5.0,974,1003.2723712000004,-802.0355109519411,
7,0.33603334426879883,0.04200410842895508,23.807194995969986,20.83126606150305,102463.0,27.0,-990.0,-38.0,0.0,47.875,20.25,-15.4375,-35.625,-12.9375,356.875,0.0,90.25,-0.70855712890625,-0.019287109375,0.0191650390625,0.70513916015625,42.0,13.0,-43.0,0.0,-980.0,-4.0,950,992.6178969600004,-692.3590379237968,
8,0.3820381164550781,0.0460047721862793,21.736875382207526,20.940318924802046,102463.0,55.0,-942.0,-42.0,1.0625,49.0625,21.0625,-12.1875,-31.125,-14.375,356.0625,0.75,91.0,-0.71258544921875,-0.03424072265625,0.02374267578125,0.7003173828125,46.0,41.0,-33.0,13.0,-980.0,-17.0,941,982.2943175680005,-598.7677020874833,
9,0.42704272270202637,0.04500460624694824,22.219947765187033,21.075174734402033,102463.0,49.0,-946.0,-36.0,1.1875,49.375,21.0625,-9.0625,-29.125,-9.9375,355.25,1.4375,91.5625,-0.71539306640625,-0.0474853515625,0.028564453125,0.696533203125,19.0,21.0,-5.0,24.0,-979.0,-27.0,764,938.6354540544005,-673.0336950219108,
10,0.47304725646972656,0.046004533767700195,21.736988033603343,21.139537040397077,102463.0,42.0,-963.0,-47.0,1.1875,50.1875,23.5625,-8.6875,-26.8125,-11.1875,354.75,1.6875,91.875,-0.71661376953125,-0.05438232421875,0.03155517578125,0.69464111328125,13.0,15.0,-15.0,29.0,-979.0,-32.0,988,948.5083632435204,-495.50549423737823,
11,0.5170514583587646,0.044004201889038086,22.72510253728998,21.27447824036011,102463.0,27.0,-939.0,-49.0,1.5625,49.0625,23.5625,-3.0625,-24.1875,-10.9375,354.0625,2.25,92.1875,-0.7176513671875,-0.0654296875,0.03564453125,0.6923828125,-10.0,39.0,-11.0,38.0,-979.0,-37.0,1207,1000.2066905948163,-161.43443737698607,
12,0.5620560646057129,0.04500460624694824,22.219947765187033,21.350183292512114,102463.0,25.0,-930.0,-50.0,1.5625,49.0625,23.5625,0.5625,-21.5,-6.625,353.4375,2.5,92.25,-0.7174072265625,-0.07257080078125,0.039306640625,0.6917724609375,-17.0,48.0,-11.0,43.0,-978.0,-39.0,1137,1027.5653524758532,-7.565942317178468,
13,0.6070606708526611,0.04500460624694824,22.219947765187033,21.414663515823797,102463.0,26.0,-936.0,-67.0,1.5625,49.75,23.5625,-4.1875,-19.0625,-7.3125,352.75,2.75,92.5,-0.7178955078125,-0.08026123046875,0.04351806640625,0.690185546875,-20.0,42.0,-24.0,47.0,-978.0,-42.0,1067,1035.4522819806825,28.996678471261422,
14,0.6540653705596924,0.04700469970703125,21.274468430449602,21.404588333456662,102459.0,38.0,-946.0,-70.0,0.75,49.375,22.75,-0.9375,-19.5625,2.5625,351.8125,2.75,92.6875,-0.71856689453125,-0.08624267578125,0.049072265625,0.68829345703125,-8.0,32.0,-23.0,47.0,-978.0,-46.0,1077,1043.7618255845462,58.553567391377385,
15,0.7010700702667236,0.04700469970703125,21.274468430449602,21.39586417416624,102459.0,52.0,-974.0,-63.0,2.25,49.75,22.75,-4.125,-14.75,0.1875,350.8125,2.625,92.875,-0.71917724609375,-0.091552734375,0.05511474609375,0.68658447265625,18.0,-4.0,-8.0,45.0,-978.0,-50.0,884,1011.8094604676369,-89.11106267847518,
16,0.7470746040344238,0.046004533767700195,21.736988033603343,21.416870435155026,102459.0,74.0,-970.0,-59.0,3.0625,49.375,23.1875,-0.5,-11.9375,4.9375,349.8125,2.5,93.0,-0.71942138671875,-0.09521484375,0.05987548828125,0.685302734375,31.0,7.0,-6.0,43.0,-978.0,-52.0,1030,1015.4475683741096,-55.472548537189326,
17,0.791079044342041,0.04400444030761719,22.724979411382254,21.48963510231686,102459.0,65.0,-940.0,-41.0,3.0625,49.375,21.875,1.125,-6.875,3.625,349.1875,2.3125,93.0,-0.71905517578125,-0.09735107421875,0.064453125,0.68505859375,34.0,57.0,11.0,39.0,-978.0,-52.0,889,990.1580546992877,-159.31877434659063,
18,0.8350834846496582,0.04400444030761719,22.724979411382254,21.554731150684322,102459.0,66.0,-933.0,-23.0,3.0625,48.5625,22.75,3.0,-3.25,14.625,348.5,1.8125,92.875,-0.7186279296875,-0.09527587890625,0.06866455078125,0.68536376953125,35.0,45.0,26.0,31.0,-978.0,-50.0,875,967.1264437594302,-232.13359636111812,
19,0.8850884437561035,0.05000495910644531,19.998016554144257,21.46678123981435,102459.0,55.0,-982.0,-17.0,4.5625,50.0625,21.5,3.9375,2.4375,11.9375,347.625,1.1875,92.6875,-0.71783447265625,-0.0927734375,0.07403564453125,0.68597412109375,34.0,-3.0,29.0,20.0,-979.0,-46.0,872,948.1011550075442,-261.80048497041275,
20,0.9310929775238037,0.046004533767700195,21.736988033603343,21.480131933965417,102459.0,61.0,-1016.0,-9.0,5.25,50.5,22.875,2.0,4.6875,5.8125,347.3125,0.875,92.625,-0.71759033203125,-0.09130859375,0.07598876953125,0.686279296875,48.0,-41.0,19.0,15.0,-979.0,-45.0,787,915.8809240060353,-349.5145431202769,
21,0.981097936630249,0.05000495910644531,19.998016554144257,21.404590934242652,102459.0,65.0,-971.0,-5.0,4.875,50.0625,22.5,-0.5625,4.125,2.5625,347.375,0.875,92.5625,-0.71734619140625,-0.0902099609375,0.0755615234375,0.6866455078125,50.0,7.0,38.0,15.0,-979.0,-44.0,801,892.9047392048284,-371.50725929734443,
22,1.0281028747558594,0.04700493812561035,21.274360522031113,21.39863679033509,102461.25,73.0,-917.0,-21.0,5.25,49.25,22.0,-6.4375,5.0625,11.0,347.125,0.5625,92.75,-0.71881103515625,-0.08819580078125,0.0771484375,0.68524169921875,64.0,62.0,26.0,9.0,-979.0,-47.0,834,881.1237913638627,-347.3322337698653,
23,1.0781078338623047,0.05000495910644531,19.998016554144257,21.333673012654824,102461.25,29.0,-931.0,-21.0,6.0625,49.6875,22.5,-14.25,11.125,26.5,346.25,-0.375,93.3125,-0.7230224609375,-0.08160400390625,0.08197021484375,0.68109130859375,36.0,47.0,35.0,-7.0,-979.0,-55.0,806,866.0990330910902,-337.9588599480763,
24,1.1231119632720947,0.04500412940979004,22.22018319462177,21.369196291060746,102461.25,39.0,-970.0,-35.0,5.6875,49.0,24.5,-20.75,21.9375,32.25,345.6875,-1.75,94.25,-0.72967529296875,-0.0682373046875,0.08447265625,0.67510986328125,70.0,7.0,37.0,-30.0,-977.0,-72.0,834,859.6792264728722,-298.8969437846308,
25,1.1741173267364502,0.05100536346435547,19.605781276293403,21.29259097937804,102461.25,67.0,-921.0,-60.0,6.375,50.0625,24.5,-29.625,22.0,38.375,345.25,-3.3125,95.5,-0.73858642578125,-0.05157470703125,0.0859375,0.66668701171875,124.0,53.0,33.0,-57.0,-974.0,-94.0,843,856.3433811782978,-252.1979256711002,
26,1.2251224517822266,0.05100512504577637,19.60587292164296,21.22236839442207,102461.25,93.0,-1072.0,3.0,9.0625,48.1875,26.5625,-3.8125,31.8125,35.5625,344.3125,-5.0625,96.3125,-0.744140625,-0.03509521484375,0.0908203125,0.660888671875,180.0,-101.0,111.0,-87.0,-970.0,-107.0,787,842.4747049426383,-256.13984131043037,
27,1.2761273384094238,0.051004886627197266,19.605964567849295,21.157763169350353,102461.25,186.0,-1015.0,-221.0,7.875,47.5625,25.0,-38.6875,18.3125,102.25,342.25,-8.1875,97.625,-0.75213623046875,-0.0069580078125,0.1014404296875,0.651123046875,327.0,-53.0,-92.0,-140.0,-961.0,-129.0,857,845.3797639541107,-193.52057623905642,
28,1.3231322765350342,0.04700493812561035,21.274360522031113,21.16190534881764,102461.25,-221.0,-1079.0,-297.0,10.875,46.0,27.0,0.625,-18.8125,86.875,336.625,-13.25,98.9375,-0.7584228515625,0.02301025390625,0.1319580078125,0.6378173828125,3.0,-136.0,-148.0,-225.0,-942.0,-148.0,889,854.1038111632886,-117.69675588339109,
29,1.3711369037628174,0.0480046272277832,20.831325181528314,21.15033146611047,102461.25,-79.0,-812.0,-246.0,14.6875,44.75,27.5,2.6875,23.25,36.375,335.375,-15.0625,98.8125,-0.75665283203125,0.03582763671875,0.1385498046875,0.63800048828125,38.0,-168.0,60.0,-250.0,-937.0,-144.0,908,864.8830489306309,-49.248243278608925,
30,1.4211418628692627,0.05000495910644531,19.998016554144257,21.109785577233282,102460.5,-493.0,-1174.0,-67.0,16.875,44.75,27.875,26.5625,-18.75,30.5625,333.3125,-17.1875,98.3125,-0.75262451171875,0.05291748046875,0.15142822265625,0.63861083984375,-138.0,-225.0,64.0,-284.0,-927.0,-140.0,917,875.3064391445048,2.2908313865837897,
31,1.470146894454956,0.04900503158569336,20.4060678596102,21.086328255308782,102460.5,-123.0,-743.0,-2.0,18.375,44.75,25.75,82.625,-85.0,14.5625,330.875,-18.1875,95.0,-0.73455810546875,0.0479736328125,0.169921875,0.6551513671875,26.0,130.0,80.0,-306.0,-927.0,-82.0,917,883.6451513156038,35.864730394307855,
32,1.5181515216827393,0.0480046272277832,20.831325181528314,21.078264944549655,102460.5,-119.0,-909.0,156.0,19.5,46.25,21.5625,37.25,-84.25,-35.3125,327.9375,-17.625,90.5625,-0.71038818359375,0.02069091796875,0.194091796875,0.67620849609375,178.0,24.0,166.0,-297.0,-934.0,-9.0,955,897.916121052483,88.14842656438248,
33,1.5681564807891846,0.05000495910644531,19.998016554144257,21.04381826958528,102460.5,-357.0,-1400.0,-61.0,19.75,46.6875,20.375,-48.5,34.125,6.0,327.5625,-16.875,91.625,-0.71661376953125,0.008544921875,0.194580078125,0.66973876953125,-72.0,-462.0,-34.0,-284.0,-938.0,-26.0,941,906.5328968419865,104.98242622787382,
34,1.6161613464355469,0.048004865646362305,20.83122172170432,21.037503511012186,102460.5,-427.0,-849.0,-139.0,19.0625,46.0,22.5,29.9375,13.0,64.125,326.8125,-18.8125,91.3125,-0.71441650390625,0.0284423828125,0.19952392578125,0.6700439453125,-110.0,78.0,-117.0,-316.0,-927.0,-21.0,941,913.4263174735893,112.70561570187682,
35,1.6631660461425781,0.04700469970703125,21.274468430449602,21.04420065643858,102460.5,-481.0,-919.0,-161.0,21.25,44.5,19.875,-48.75,34.1875,44.75,324.3125,-21.625,91.6875,-0.71533203125,0.04840087890625,0.21337890625,0.6636962890625,-119.0,-8.0,-133.0,-362.0,-910.0,-27.0,903,911.3410539788715,81.29191808399304,
36,1.7101707458496094,0.04700469970703125,21.274468430449602,21.05052965463707,102460.5,-540.0,-1373.0,-170.0,22.5,44.0625,22.75,-135.1875,83.1875,9.125,324.25,-22.6875,98.25,-0.74951171875,0.06658935546875,0.20184326171875,0.62689208984375,-161.0,-477.0,-40.0,-378.0,-898.0,-104.0,886,906.2728431830973,43.468836352481866,
37,1.7591757774353027,0.04900503158569336,20.4060678596102,21.032577002590493,102457.75,-534.0,-920.0,236.0,22.5,44.0625,22.75,-184.5,50.1875,118.8125,320.3125,-25.375,105.8125,-0.7845458984375,0.08892822265625,0.20806884765625,0.5772705078125,-113.0,-68.0,478.0,-420.0,-852.0,-242.0,834,891.8182745464778,-24.217112614064497,
38,1.806180477142334,0.04700469970703125,21.274468430449602,21.03887207336117,102457.75,-694.0,-650.0,-400.0,21.0,40.6875,28.1875,-153.75,97.1875,106.0,314.25,-29.125,116.8125,-0.824462890625,0.13238525390625,0.21380615234375,0.50689697265625,-216.0,114.0,-13.0,-477.0,-764.0,-386.0,829,879.2546196371823,-72.83070603902594,
39,1.8551852703094482,0.04900479316711426,20.406167139402843,21.022159147207294,102457.75,-460.0,-360.0,-476.0,23.6875,35.0625,35.25,-141.5,90.6875,89.0625,309.8125,-30.25,127.625,-0.8570556640625,0.17120361328125,0.2060546875,0.4400634765625,33.0,310.0,40.0,-494.0,-670.0,-517.0,870,877.4036957097459,-65.81861743633812,
40,1.9031901359558105,0.048004865646362305,20.83122172170432,21.017343062211385,102457.75,-425.0,-357.0,-592.0,24.0,26.75,40.25,-99.5625,87.1875,76.6875,305.5625,-30.375,136.5,-0.87774658203125,0.2066650390625,0.19769287109375,0.3843994140625,71.0,224.0,21.0,-496.0,-581.0,-614.0,876,877.1229565677968,-53.82452181145098,
41,1.9511950016021729,0.048004865646362305,20.83122172170432,21.012763955593325,102457.75,-283.0,-345.0,-679.0,22.875,20.75,44.375,-95.4375,65.5625,77.0,300.875,-29.9375,144.0625,-0.8912353515625,0.23822021484375,0.1903076171875,0.3358154296875,206.0,152.0,8.0,-489.0,-498.0,-688.0,876,876.8983652542375,-43.995319739065074,
42,2.000199794769287,0.04900479316711426,20.406167139402843,20.99790236447079,102457.75,-539.0,-237.0,-807.0,20.5625,16.25,46.375,-105.5625,41.4375,77.75,212.8125,-29.9375,151.5625,-0.900390625,0.2652587890625,0.193115234375,0.28570556640625,-49.0,166.0,-60.0,-489.0,-404.0,-747.0,872,875.91869220339,-39.19453019476466,
43,2.0472044944763184,0.04700469970703125,21.274468430449602,21.00425244083862,102457.75,-381.0,-231.0,-752.0,19.0625,12.375,48.875,-102.625,48.75,103.8125,215.6875,-29.875,157.9375,-0.90386962890625,0.29119873046875,0.19757080078125,0.24322509765625,107.0,87.0,35.0,-489.0,-318.0,-788.0,894,879.5349537627121,-15.968815679802503,
44,2.0972094535827637,0.05000495910644531,19.998016554144257,20.98026018566371,102457.75,-687.0,-333.0,-671.0,17.5,4.375,49.1875,-108.75,30.0625,88.8125,219.1875,-29.5,165.875,-0.90460205078125,0.322021484375,0.20465087890625,0.1900634765625,-189.0,-25.0,178.0,-483.0,-207.0,-827.0,950,893.6279630101698,43.59139390183122,
45,2.147214412689209,0.05000495910644531,19.998016554144257,20.9573854078416,102459.25,-621.0,55.0,-836.0,15.1875,-0.75,51.0,-94.625,54.6875,81.5,222.5,-28.1875,173.5625,-0.90252685546875,0.35101318359375,0.20904541015625,0.135986328125,-158.0,152.0,22.0,-463.0,-96.0,-858.0,922,899.3023704081359,57.56849373736189,
46,2.1952192783355713,0.048004865646362305,20.83122172170432,20.954626471245952,102459.25,-398.0,36.0,-851.0,14.0625,-7.1875,50.5,-57.5,55.6875,57.5625,224.625,-25.4375,178.5625,-0.9022216796875,0.37042236328125,0.19964599609375,0.09442138671875,78.0,59.0,-59.0,-421.0,-22.0,-884.0,811,881.6418963265088,-27.523055271067633,
47,2.2422239780426025,0.04700469970703125,21.274468430449602,20.961331454955566,102459.25,-273.0,182.0,-884.0,11.5,-11.0,50.0625,-37.875,31.5,36.8125,226.375,-23.5,-177.9375,-0.89959716796875,0.38580322265625,0.19403076171875,0.06500244140625,125.0,158.0,32.0,-391.0,32.0,-898.0,806,866.5135170612072,-86.38808963355976,
48,2.289228677749634,0.04700469970703125,21.274468430449602,20.967761091995904,102459.25,-278.0,49.0,-922.0,9.0625,-13.6875,51.25,4.375,9.125,7.125,226.9375,-22.75,-177.25,-0.89886474609375,0.3905029296875,0.19024658203125,0.05828857421875,102.0,6.0,-19.0,-380.0,42.0,-903.0,825,858.2108136489658,-104.43759203307091,
49,2.338233709335327,0.04900503158569336,20.4060678596102,20.95598904607738,102459.25,-370.0,13.0,-949.0,7.25,-14.0,49.5625,5.3125,-17.3125,-9.9375,226.875,-23.125,-177.75,-0.8985595703125,0.3896484375,0.19171142578125,0.06304931640625,15.0,6.0,-3.0,-386.0,35.0,-900.0,848,856.1686509191727,-91.88457587536155,
50,2.3842382431030273,0.046004533767700195,21.736988033603343,20.97105863670999,102459.25,-376.0,114.0,-953.0,7.5625,-14.5,51.0625,24.3125,-20.625,-14.3125,226.5,-24.125,-178.625,-0.8983154296875,0.3861083984375,0.196533203125,0.07269287109375,29.0,79.0,-77.0,-401.0,20.0,-894.0,922,869.3349207353382,-16.268650812052847,
51,2.4302430152893066,0.0460047721862793,21.736875382207526,20.98555563338539,102459.25,-445.0,25.0,-936.0,8.6875,-13.25,50.25,31.8125,-23.4375,-23.8125,226.0625,-24.8125,-179.8125,-0.89862060546875,0.38238525390625,0.19842529296875,0.08294677734375,-13.0,32.0,-54.0,-411.0,2.0,-889.0,959,887.2679365882707,64.94662551482688,
52,2.476247549057007,0.046004533767700195,21.736988033603343,20.99951598934541,102459.25,-298.0,82.0,-959.0,9.375,-13.0,50.75,41.125,-30.0,-34.375,225.0625,-26.0,177.8125,-0.89971923828125,0.37359619140625,0.20111083984375,0.1024169921875,131.0,115.0,-78.0,-429.0,-33.0,-880.0,959,901.6143492706167,114.32686057211954,
53,2.524252414703369,0.048004865646362305,20.83122172170432,20.996315460087676,102458.5,-398.0,-31.0,-807.0,10.875,-10.5625,49.5,74.8125,-67.5625,-93.3125,222.5,-28.3125,173.1875,-0.90216064453125,0.35107421875,0.208984375,0.138671875,67.0,69.0,50.0,-465.0,-101.0,-857.0,857,892.6914794164934,54.28663239266488,
54,2.5732572078704834,0.04900479316711426,20.406167139402843,20.985076748191865,102458.5,-369.0,-220.0,-776.0,14.6875,-6.1875,49.875,136.4375,-80.5625,-149.625,216.9375,-30.625,163.625,-0.90606689453125,0.302978515625,0.2130126953125,0.20465087890625,130.0,16.0,32.0,-500.0,-237.0,-809.0,825,879.1531835331948,-11.823639801324191,
55,2.6222622394561768,0.04900503158569336,20.4060678596102,20.97425618705713,102458.5,-170.0,-369.0,-502.0,18.0,0.1875,49.5,186.25,-114.5,-197.125,209.875,-31.625,149.625,-0.89990234375,0.2401123046875,0.2125244140625,0.2955322265625,343.0,52.0,217.0,-514.0,-421.0,-720.0,913,885.922546826556,18.168305505077065,
56,2.672267198562622,0.05000495910644531,19.998016554144257,20.95598824478393,102458.5,-670.0,-755.0,-490.0,21.375,12.5625,45.75,238.0,-132.0625,-244.875,305.625,-29.5625,131.25,-0.8739013671875,0.152587890625,0.2108154296875,0.4105224609375,-185.0,-114.0,72.0,-484.0,-640.0,-562.0,811,870.9380374612449,-45.39744886458238,
57,2.7212719917297363,0.04900479316711426,20.406167139402843,20.94608704063014,102458.5,-309.0,-1019.0,-235.0,21.875,24.1875,40.0625,181.6875,-55.0625,-164.5,318.625,-23.875,116.75,-0.83612060546875,0.08380126953125,0.19134521484375,0.5072021484375,87.0,-219.0,168.0,-397.0,-800.0,-404.0,820,860.750429968996,-77.8959633391589,
58,2.7702770233154297,0.04900503158569336,20.4060678596102,20.93653432918647,102458.5,-283.0,-841.0,-230.0,19.5625,33.0,35.875,133.25,-47.5625,-110.875,325.8125,-18.9375,107.9375,-0.8026123046875,0.03863525390625,0.17486572265625,0.5689697265625,34.0,41.0,55.0,-318.0,-882.0,-285.0,801,848.8003439751968,-111.08762381485558,
59,2.820281982421875,0.05000495910644531,19.998016554144257,20.919893956608774,102458.5,-246.0,-1002.0,-120.0,17.75,38.5625,29.5,114.4375,-19.1875,-71.75,330.75,-15.0625,101.1875,-0.770751953125,0.01043701171875,0.16070556640625,0.616455078125,8.0,-73.0,64.0,-255.0,-928.0,-184.0,740,827.0402751801576,-175.90174224838714,
60,2.866286516189575,0.046004533767700195,21.736988033603343,20.93300849761651,102458.5,-153.0,-872.0,-139.0,15.0625,41.5625,25.25,74.625,-39.375,-64.0625,333.5625,-12.25,96.375,-0.74444580078125,-0.01123046875,0.152587890625,0.64990234375,55.0,79.0,-32.0,-208.0,-952.0,-106.0,726,806.8322201441262,-228.57384389883217,
61,2.9152913093566895,0.04900479316711426,20.406167139402843,20.924152520957065,102457.75,-190.0,-1016.0,95.0,12.0,42.875,22.75,40.6875,-18.8125,-53.25,335.375,-9.4375,93.375,-0.72662353515625,-0.03558349609375,0.14593505859375,0.67041015625,-29.0,-50.0,152.0,-161.0,-965.0,-57.0,620,769.465776115301,-335.3602555705354,
62,2.9632961750030518,0.048004865646362305,20.83122172170432,20.92264705870521,102457.75,-149.0,-1004.0,97.0,12.0,42.875,22.75,18.125,4.9375,-9.5625,336.5,-8.375,92.4375,-0.72064208984375,-0.04180908203125,0.140869140625,0.67755126953125,-5.0,-34.0,139.0,-143.0,-969.0,-41.0,717,758.9726208922408,-312.0052530587936,
63,3.014301300048828,0.05100512504577637,19.60587292164296,20.9003658655422,102457.75,-133.0,-1049.0,74.0,9.75,45.0625,20.5,11.875,9.25,15.125,336.8125,-8.5625,91.875,-0.7177734375,-0.0372314453125,0.13946533203125,0.68115234375,13.0,-79.0,106.0,-146.0,-969.0,-32.0,754,757.9780967137926,-253.50390537906608,
64,3.0643062591552734,0.05000495910644531,19.998016554144257,20.885640855507262,102457.75,-68.0,-852.0,-57.0,10.875,44.75,19.6875,6.8125,21.9375,0.1875,337.125,-9.125,91.625,-0.7166748046875,-0.0283203125,0.1380615234375,0.68304443359375,74.0,75.0,-68.0,-156.0,-967.0,-28.0,665,739.3824773710342,-277.1782249934627,
65,3.1143112182617188,0.05000495910644531,19.998016554144257,20.871388709918445,102457.75,-129.0,-1030.0,31.0,11.5625,44.75,19.1875,38.3125,21.5625,1.0,338.125,-9.25,90.4375,-0.70977783203125,-0.0205078125,0.1334228515625,0.69134521484375,21.0,-76.0,25.0,-157.0,-967.0,-8.0,630,717.5059818968274,-309.23988372273993,
66,3.1733171939849854,0.0590059757232666,16.947436047662723,20.798425107046604,102457.75,-59.0,-1193.0,193.0,10.75,45.1875,16.0625,25.375,33.4375,-51.1875,342.0625,-7.4375,88.375,-0.6983642578125,-0.017333984375,0.1165771484375,0.7080078125,86.0,-249.0,68.0,-135.0,-970.0,23.0,597,693.404785517462,-329.0826038404832,
67,3.2233221530914307,0.05000495910644531,19.998016554144257,20.78600798115742,102457.75,90.0,-1067.0,-37.0,8.875,46.25,16.5625,48.75,9.4375,-55.25,345.125,-5.4375,87.1875,-0.6893310546875,-0.02325439453125,0.09332275390625,0.718017578125,183.0,-92.0,-85.0,-93.0,-975.0,47.0,573,669.3238284139696,-359.5803588314421,
68,3.273327350616455,0.050005197525024414,19.9979212060819,20.773968722435836,102457.5,83.0,-1106.0,124.0,6.25,46.6875,14.5,65.3125,30.25,-50.8125,349.0,-2.75,84.25,-0.67047119140625,-0.03173828125,0.07098388671875,0.73785400390625,130.0,-132.0,27.0,-47.0,-974.0,97.0,620,659.4590627311758,-327.11924843334816,
69,3.3233323097229004,0.05000495910644531,19.998016554144257,20.762293255516546,102457.5,208.0,-937.0,135.0,3.6875,49.0,12.375,56.5625,21.5625,-54.6875,352.875,-0.375,81.25,-0.650390625,-0.03564453125,0.04681396484375,0.75732421875,215.0,31.0,-13.0,-6.0,-969.0,148.0,554,638.3672501849408,-346.0542820379817,
70,3.3703370094299316,0.04700469970703125,21.274468430449602,20.76943635136357,102457.5,136.0,-961.0,84.0,0.6875,49.25,9.5625,13.25,48.6875,-42.0625,356.875,1.4375,79.8125,-0.6407470703125,-0.03375244140625,0.02069091796875,0.7667236328125,111.0,3.0,-89.0,24.0,-964.0,173.0,414,593.4938001479527,-467.77518486583733,
71,3.418341875076294,0.048004865646362305,20.83122172170432,20.7703040230332,102457.5,148.0,-959.0,259.0,-0.0625,49.75,9.5625,-1.0625,50.0625,-24.5,0.6875,2.5625,79.4375,-0.63897705078125,-0.02545166015625,-0.0047607421875,0.768798828125,103.0,4.0,81.0,44.0,-963.0,178.0,418,558.3950401183622,-520.4501583593285,
72,3.467346668243408,0.04900479316711426,20.406167139402843,20.765157594258064,102457.5,117.0,-862.0,241.0,-1.5625,46.6875,8.75,-13.375,29.0625,-38.0625,3.75,3.5625,79.75,-0.6409912109375,-0.01971435546875,-0.02532958984375,0.766845703125,56.0,100.0,67.0,61.0,-963.0,174.0,404,527.5160320946898,-542.3845664534671,
73,3.5153515338897705,0.048004865646362305,20.83122172170432,20.766059751419736,102457.5,76.0,-912.0,221.0,-4.875,47.75,9.0625,-17.8125,35.8125,-31.625,6.875,5.0,80.5,-0.64642333984375,-0.01837158203125,-0.046142578125,0.7613525390625,-9.0,51.0,61.0,81.0,-963.0,162.0,418,505.6128256757519,-525.1617630286041,
74,3.5603559017181396,0.04500436782836914,22.220065479280787,20.7844389838357,102457.5,46.0,-875.0,238.0,-4.875,47.75,9.0625,-10.625,19.625,-34.8125,9.25,6.125,80.9375,-0.64935302734375,-0.01849365234375,-0.0614013671875,0.7578125,-59.0,87.0,85.0,105.0,-962.0,153.0,447,493.8902605406015,-472.2246434005184,
75,3.60636043548584,0.046004533767700195,21.736988033603343,20.796590174962972,102457.5,81.0,-786.0,243.0,-6.375,46.75,10.375,-19.3125,11.1875,-19.6875,11.375,7.4375,81.4375,-0.65264892578125,-0.02093505859375,-0.07525634765625,0.75360107421875,-45.0,174.0,98.0,127.0,-961.0,144.0,447,484.5122084324812,-418.54983601095864,
76,3.651365041732788,0.04500460624694824,22.219947765187033,20.81413365450131,102456.0,30.0,-927.0,161.0,-7.1875,47.1875,10.375,-21.5625,16.6875,-15.6875,12.625,7.9375,82.25,-0.658203125,-0.0194091796875,-0.0830078125,0.748046875,-105.0,34.0,30.0,135.0,-962.0,130.0,404,468.409766745985,-406.39895144195015,
77,3.7023701667785645,0.05100512504577637,19.60587292164296,20.797488238999552,102456.0,68.0,-816.0,169.0,-8.0,46.75,11.5625,-12.75,3.6875,-9.9375,13.9375,8.75,83.125,-0.6636962890625,-0.021484375,-0.0906982421875,0.74212646484375,-80.0,145.0,53.0,149.0,-962.0,115.0,644,503.527813396788,-187.41516917516546,
78,3.7503747940063477,0.0480046272277832,20.831325181528314,20.79792135032891,102456.0,46.0,-910.0,138.0,-8.375,44.875,11.1875,-7.25,19.75,-6.25,14.625,8.875,83.4375,-0.665771484375,-0.019287109375,-0.09503173828125,0.7398681640625,-105.0,51.0,28.0,152.0,-962.0,110.0,339,470.62225071743046,-287.02543063110426,
79,3.800379753112793,0.05000495910644531,19.998016554144257,20.787396295144752,102456.0,130.0,-873.0,175.0,-9.1875,45.6875,12.0,-12.5625,-2.25,5.375,14.9375,8.8125,83.625,-0.66705322265625,-0.01641845703125,-0.0968017578125,0.738525390625,-19.0,89.0,67.0,150.0,-963.0,107.0,357,447.89780057394444,-320.5091305355353,
80,3.8483846187591553,0.048004865646362305,20.83122172170432,20.787942974835662,102456.0,86.0,-917.0,154.0,-9.1875,44.875,12.375,-30.1875,-5.4375,3.3125,14.9375,8.6875,84.9375,-0.67572021484375,-0.014892578125,-0.09613037109375,0.730712890625,-62.0,48.0,69.0,148.0,-965.0,84.0,372,432.7182404591556,-319.6490609062494,
81,3.8943893909454346,0.0460047721862793,21.736875382207526,20.79915279872303,102456.0,106.0,-959.0,147.0,-9.5,45.6875,13.25,-15.4375,-9.5625,6.6875,14.5,8.4375,86.0,-0.682373046875,-0.01495361328125,-0.09234619140625,0.7249755859375,-68.0,12.0,74.0,144.0,-967.0,66.0,348,415.77459236732454,-329.3796421434215,
82,3.945394277572632,0.051004886627197266,19.605964567849295,20.78372761529166,102456.0,162.0,-914.0,116.0,-9.1875,45.25,14.5,-17.125,-14.5625,-6.6875,14.125,8.625,86.875,-0.6878662109375,-0.0185546875,-0.089599609375,0.72003173828125,25.0,41.0,59.0,147.0,-968.0,51.0,297,392.0196738938597,-356.6513316953173,
83,3.993399143218994,0.048004865646362305,20.83122172170432,20.784298544496473,102456.0,153.0,-939.0,100.0,-8.75,44.5625,14.875,-7.125,-7.9375,0.6875,13.9375,8.75,87.5,-0.69171142578125,-0.021240234375,-0.08831787109375,0.7164306640625,3.0,28.0,59.0,149.0,-968.0,41.0,282,370.01573911508774,-376.99483418155785,
84,4.040403842926025,0.04700469970703125,21.274468430449602,20.790001016128112,102462.75,132.0,-915.0,151.0,-8.0,44.5625,15.25,-1.125,-3.375,7.5,13.5625,8.5625,87.625,-0.69219970703125,-0.02215576171875,-0.08544921875,0.71630859375,-13.0,80.0,91.0,147.0,-968.0,40.0,297,355.41259129207026,-363.73070881444113,
85,4.089408874511719,0.04900503158569336,20.4060678596102,20.78540019066915,102462.75,96.0,-915.0,110.0,-8.0,44.875,15.75,-1.1875,-3.0625,-0.375,13.375,8.5,87.75,-0.69305419921875,-0.02203369140625,-0.08392333984375,0.71563720703125,-39.0,60.0,28.0,144.0,-969.0,37.0,240,332.3300730336562,-385.1892538419306,
86,4.139413833618164,0.05000495910644531,19.998016554144257,20.775888436559008,102462.75,113.0,-958.0,121.0,-8.75,44.1875,16.5625,8.375,1.625,6.4375,13.1875,8.375,87.5625,-0.69195556640625,-0.021728515625,-0.08306884765625,0.71685791015625,-54.0,34.0,97.0,143.0,-969.0,40.0,236,313.064058426925,-385.2078188811038,
87,4.188418626785278,0.04900479316711426,20.406167139402843,20.771562671321323,102462.75,129.0,-903.0,122.0,-8.375,44.1875,14.875,12.3125,-16.1875,-2.5625,12.6875,8.3125,87.0,-0.68817138671875,-0.02374267578125,-0.08026123046875,0.720703125,12.0,68.0,73.0,141.0,-969.0,50.0,282,306.85124674153997,-333.5221898364034,
88,4.238423585891724,0.05000495910644531,19.998016554144257,20.76243636736125,102462.75,110.0,-948.0,70.0,-7.25,43.75,15.75,-4.5625,2.0,3.8125,12.25,8.1875,87.0,-0.6883544921875,-0.0252685546875,-0.07733154296875,0.72076416015625,-62.0,6.0,-2.0,140.0,-969.0,50.0,404,326.280997393232,-189.1064568340363,
89,4.288428783416748,0.050005197525024414,19.9979212060819,20.75352174301247,102462.75,53.0,-959.0,51.0,-7.6875,43.75,14.875,-1.375,-6.125,1.0625,12.0,8.125,87.125,-0.68914794921875,-0.025634765625,-0.0758056640625,0.72015380859375,-87.0,71.0,-25.0,138.0,-969.0,47.0,376,336.22479791458557,-111.51409760422402,
90,4.33643364906311,0.048004865646362305,20.83122172170432,20.75438189154458,102462.75,94.0,-872.0,32.0,-8.375,44.1875,14.875,-15.0,-7.875,1.3125,11.6875,8.0625,87.5625,-0.69189453125,-0.02740478515625,-0.07366943359375,0.71771240234375,-48.0,85.0,-19.0,138.0,-969.0,40.0,357,340.37983833166845,-71.90036444519994,
91,4.386438608169556,0.05000495910644531,19.998016554144257,20.745759402745627,102462.75,18.0,-1029.0,-26.0,-7.6875,42.6875,14.875,-13.625,5.0625,13.5,11.375,7.5625,88.3125,-0.696533203125,-0.02325439453125,-0.0711669921875,0.713623046875,-124.0,-40.0,-44.0,129.0,-971.0,28.0,329,338.1038706653348,-66.62325936976745,
92,4.436443567276001,0.05000495910644531,19.998016554144257,20.73733128910022,102456.5,28.0,-1004.0,48.0,-7.25,43.0625,16.0625,4.875,4.4375,10.9375,11.1875,7.0625,88.25,-0.6962890625,-0.0185546875,-0.0699462890625,0.714111328125,-77.0,-25.0,0.0,121.0,-972.0,29.0,287,327.8830965322678,-94.17764955766256,
93,4.484448432922363,0.048004865646362305,20.83122172170432,20.738336362002727,102456.5,-8.0,-1070.0,100.0,-6.5,42.6875,16.0625,8.0,12.5,12.875,11.0625,6.6875,88.0,-0.69482421875,-0.014404296875,-0.0693359375,0.7156982421875,-92.0,-110.0,43.0,114.0,-973.0,33.0,348,331.9064772258143,-58.579732586511845,
94,4.5314531326293945,0.04700469970703125,21.274468430449602,20.743897652419523,102456.5,9.0,-1017.0,97.0,-7.25,44.1875,16.0625,-0.1875,-2.6875,8.375,10.8125,6.1875,87.75,-0.69317626953125,-0.0093994140625,-0.0682373046875,0.71746826171875,-97.0,-82.0,45.0,105.0,-974.0,38.0,348,335.1251817806515,-33.16854038144386,
95,4.576457500457764,0.04500436782836914,22.220065479280787,20.758414120637536,102456.5,55.0,-980.0,97.0,-6.875,43.0625,16.5625,-14.0,-1.3125,1.375,10.8125,6.0625,88.3125,-0.69671630859375,-0.0081787109375,-0.067626953125,0.714111328125,-48.0,-5.0,68.0,103.0,-974.0,28.0,292,326.5001454245212,-64.86460682403359,
96,4.62746262550354,0.05100512504577637,19.60587292164296,20.745710504696664,102456.5,37.0,-982.0,56.0,-7.6875,43.375,16.5625,-18.3125,-0.875,5.375,10.6875,5.75,89.0,-0.70123291015625,-0.00537109375,-0.06640625,0.7098388671875,-61.0,-6.0,40.0,98.0,-975.0,16.0,292,319.600116339617,-78.94790413808126,
97,4.678467750549316,0.05100512504577637,19.60587292164296,20.73328388094817,102456.5,76.0,-1008.0,65.0,-6.875,43.0625,16.5625,-16.25,-5.875,4.125,10.5,5.625,89.9375,-0.706787109375,-0.0050048828125,-0.06475830078125,0.70440673828125,-20.0,-32.0,65.0,96.0,-975.0,0.0,221,299.8800930716936,-140.48397735101474,
98,4.724472284317017,0.046004533767700195,21.736988033603343,20.74305744692651,102456.5,48.0,-1047.0,-42.0,-6.1875,42.25,17.75,0.125,-0.0625,5.8125,10.125,5.3125,90.25,-0.70892333984375,-0.00347900390625,-0.0625,0.7025146484375,-43.0,-70.0,-37.0,91.0,-976.0,-5.0,226,285.1040744573549,-176.62440984164783,
99,4.771476984024048,0.04700469970703125,21.274468430449602,20.748292474525964,102456.5,7.0,-1017.0,-3.0,-6.1875,41.875,17.75,23.375,3.5,-2.4375,10.5625,5.375,89.75,-0.70556640625,-0.00164794921875,-0.0653076171875,0.70562744140625,-85.0,-41.0,-8.0,92.0,-976.0,4.0,240,276.08325956588396,-179.6821361984239,
100,4.820482015609741,0.04900503158569336,20.4060678596102,20.744813418280337,102459.25,69.0,-767.0,190.0,-6.1875,41.1875,17.0,26.25,-6.0625,6.25,10.3125,5.375,88.25,-0.6962890625,-0.00286865234375,-0.0648193359375,0.71484375,-23.0,208.0,160.0,92.0,-975.0,29.0,240,268.8666076527072,-173.19840669063322,
101,4.8694868087768555,0.04900479316711426,20.406167139402843,20.741405401890745,102459.25,10.0,-927.0,123.0,-7.25,41.1875,16.0625,-11.25,4.6875,15.9375,9.9375,4.75,88.0625,-0.6954345703125,0.002685546875,-0.0625,0.71588134765625,-71.0,48.0,91.0,81.0,-976.0,32.0,259,266.89328612216576,-146.6123111469088,
102,4.916491508483887,0.04700469970703125,21.274468430449602,20.74650181414715,102459.25,65.0,-1003.0,77.0,-7.25,41.5625,15.25,3.25,-14.75,9.5625,9.5625,4.1875,88.4375,-0.69757080078125,0.00518798828125,-0.05908203125,0.71405029296875,-76.0,31.0,68.0,73.0,-977.0,26.0,39,221.31462889773263,-311.22218976222433,
103,4.964496374130249,0.048004865646362305,20.83122172170432,20.747321024692056,102459.25,55.0,-1073.0,33.0,-7.25,41.5625,15.25,11.5625,-9.6875,12.625,8.625,3.75,88.0625,-0.69525146484375,0.00665283203125,-0.05426025390625,0.7166748046875,-9.0,-95.0,1.0,64.0,-977.0,32.0,522,281.4517031181861,1.567993546391648,
104,5.012501239776611,0.048004865646362305,20.83122172170432,20.748124544032013,102459.25,16.0,-1185.0,-20.0,-6.875,41.1875,15.75,20.375,1.8125,8.9375,8.125,3.0625,87.25,-0.690185546875,0.01153564453125,-0.05133056640625,0.72174072265625,-36.0,-206.0,-66.0,53.0,-978.0,46.0,128,250.7613624945489,-126.60906321200989,
105,5.0595057010650635,0.04700446128845215,21.27457633996277,20.753015453248075,102459.25,147.0,-995.0,63.0,-5.375,43.375,15.75,3.1875,-25.3125,-4.4375,7.625,3.1875,86.5,-0.685546875,0.00726318359375,-0.048583984375,0.72637939453125,92.0,-18.0,5.0,54.0,-977.0,58.0,254,251.40908999563914,-98.53122493572043,
106,5.108510494232178,0.04900479316711426,20.406167139402843,20.74968821531844,102459.25,132.0,-1048.0,-42.0,-5.375,42.25,14.5,-39.9375,-13.3125,-3.25,7.375,3.375,87.5625,-0.6920166015625,0.00372314453125,-0.046630859375,0.72039794921875,75.0,-43.0,-68.0,58.0,-978.0,41.0,240,249.12727199651133,-88.13761184295633,
107,5.154515266418457,0.0460047721862793,21.736875382207526,20.758498999334122,102459.25,83.0,-1087.0,-5.0,-5.0,42.25,15.25,-34.0625,-1.875,-1.0,7.4375,3.4375,89.5625,-0.70458984375,0.00323486328125,-0.046142578125,0.70806884765625,23.0,-108.0,-12.0,59.0,-978.0,6.0,189,237.10181759720908,-122.78925021277553,
108,5.202520132064819,0.048004865646362305,20.83122172170432,20.759170028840632,102464.5,-19.0,-1093.0,8.0,-5.0,43.0625,16.5625,-3.625,5.0,10.3125,7.4375,3.125,90.25,-0.7086181640625,0.00726318359375,-0.04608154296875,0.70404052734375,-73.0,-114.0,12.0,53.0,-979.0,-4.0,170,223.68145407776728,-154.14391378209325,
109,5.2485246658325195,0.046004533767700195,21.736988033603343,20.767740830024366,102464.5,-64.0,-935.0,106.0,-4.6875,39.25,18.25,3.75,2.0,-2.3125,7.75,3.0,90.125,-0.70806884765625,0.01055908203125,-0.04791259765625,0.7044677734375,-116.0,43.0,109.0,51.0,-979.0,-2.0,165,211.94516326221384,-174.3374536289894,
110,5.295529365539551,0.04700469970703125,21.274468430449602,20.77223869549675,102464.5,-48.0,-860.0,96.0,-5.0,42.25,18.25,-16.8125,-6.875,-1.75,8.0,3.1875,90.5,-0.71014404296875,0.01025390625,-0.04962158203125,0.70220947265625,-98.0,108.0,96.0,54.0,-979.0,-5.0,118,193.15613060977108,-219.4152993038076,
111,5.346534490585327,0.05100512504577637,19.60587292164296,20.761111743589996,102464.5,-77.0,-1061.0,-54.0,-5.0,41.875,17.375,-26.125,-5.625,0.4375,7.8125,3.125,91.75,-0.7178955078125,0.00927734375,-0.047607421875,0.6944580078125,-132.0,-82.0,-23.0,54.0,-978.0,-30.0,118,178.12490448781688,-234.47230128374895,
112,5.3945393562316895,0.048004865646362305,20.83122172170432,20.761735637468156,102464.5,74.0,-928.0,63.0,-5.0,41.5625,18.5625,8.0625,-20.6875,-0.1875,7.625,3.25,92.0,-0.7196044921875,0.0067138671875,-0.04644775390625,0.6927490234375,18.0,50.0,99.0,56.0,-978.0,-35.0,123,167.0999235902535,-233.51060533793867,
113,5.442543983459473,0.0480046272277832,20.831325181528314,20.762349435010577,102464.5,4.0,-1015.0,53.0,-5.0,41.1875,19.0625,0.3125,-1.625,10.9375,6.6875,2.6875,91.6875,-0.71759033203125,0.008056640625,-0.0406494140625,0.69525146484375,-41.0,-36.0,83.0,46.0,-979.0,-29.0,114,156.4799388722028,-231.05415528726598,
114,5.490548849105835,0.048004865646362305,20.83122172170432,20.762951597920033,102464.5,69.0,-1055.0,-55.0,-3.875,41.1875,18.5625,-9.625,-16.1875,8.875,5.625,2.1875,91.9375,-0.71905517578125,0.00750732421875,-0.03424072265625,0.69403076171875,31.0,-75.0,-21.0,38.0,-979.0,-33.0,184,161.98395109776226,-161.91226442389276,
115,5.535553455352783,0.04500460624694824,22.219947765187033,20.774797123275363,102464.5,50.0,-1057.0,-62.0,-4.25,40.75,18.5625,-17.4375,-9.0625,2.0,5.3125,2.0625,92.5625,-0.722900390625,0.007568359375,-0.0322265625,0.690185546875,30.0,-94.0,-15.0,35.0,-979.0,-44.0,156,160.78716087820982,-134.8483347719826,
116,5.579557657241821,0.044004201889038086,22.72510253728998,20.79017856360732,102462.75,86.0,-1078.0,-90.0,-3.5,40.75,19.5,2.3125,-3.1875,-1.9375,5.0,1.9375,92.8125,-0.72454833984375,0.00665283203125,-0.03033447265625,0.68853759765625,52.0,-99.0,-41.0,34.0,-978.0,-49.0,104,149.42972870256787,-159.498429967942,
117,5.6265623569488525,0.04700469970703125,21.274468430449602,20.79422435539242,102462.75,67.0,-989.0,-13.0,-3.875,41.1875,19.0625,9.0,3.25,7.125,5.125,1.8125,92.4375,-0.72198486328125,0.00927734375,-0.03106689453125,0.691162109375,-6.0,-1.0,45.0,31.0,-979.0,-41.0,118,143.1437829620543,-154.34477481676862,
118,5.673567056655884,0.04700469970703125,21.274468430449602,20.798203109553377,102462.75,8.0,-947.0,-1.0,-3.875,41.1875,19.0625,0.125,-1.375,2.5,5.0,1.6875,92.3125,-0.72137451171875,0.01031494140625,-0.03045654296875,0.6917724609375,-20.0,31.0,39.0,29.0,-979.0,-40.0,95,133.51502636964346,-164.44515548336048,
119,5.719571828842163,0.0460047721862793,21.736875382207526,20.805753220882213,102462.75,23.0,-959.0,-26.0,-2.75,40.375,18.25,-9.5,-5.25,-3.9375,5.0,1.875,92.6875,-0.7236328125,0.0079345703125,-0.03045654296875,0.689453125,-14.0,6.0,4.0,32.0,-978.0,-47.0,90,124.81202109571478,-169.39135260470493,
120,5.766576528549194,0.04700469970703125,21.274468430449602,20.809573827019104,102462.75,-11.0,-963.0,-49.0,-3.1875,40.0625,19.875,-3.9375,-3.375,-2.8125,5.0625,1.9375,93.0,-0.72552490234375,0.00738525390625,-0.030517578125,0.68743896484375,-44.0,15.0,1.0,33.0,-978.0,-51.0,95,118.84961687657183,-160.8824781497112,
121,5.811581134796143,0.04500460624694824,22.219947765187033,20.820495695315525,102462.75,29.0,-950.0,-35.0,-3.5,40.75,19.875,3.0,-3.5,-2.625,5.1875,2.125,93.0,-0.7255859375,0.0057373046875,-0.0311279296875,0.6873779296875,-3.0,45.0,29.0,36.0,-978.0,-52.0,71,109.27969350125747,-171.2346220230345,
122,5.859585762023926,0.0480046272277832,20.831325181528314,20.82058441582749,102462.75,13.0,-918.0,-27.0,-3.5,41.5625,19.5,4.6875,-2.0,4.8125,4.875,1.875,92.625,-0.72332763671875,0.00726318359375,-0.0296630859375,0.6898193359375,-15.0,66.0,72.0,32.0,-979.0,-45.0,85,104.42375480100598,-157.21882524372893,
123,5.908590793609619,0.04900503158569336,20.4060678596102,20.81714647306926,102462.75,-10.0,-991.0,-22.0,-2.75,41.5625,19.875,-10.9375,-1.5625,1.8125,4.75,1.75,93.0,-0.7255859375,0.0081787109375,-0.02880859375,0.6875,-53.0,-20.0,17.0,29.0,-978.0,-52.0,104,104.33900384080479,-126.12094696398968,
124,5.9585957527160645,0.05000495910644531,19.998016554144257,20.81027227656415,102461.0,50.0,-965.0,-61.0,-3.5,41.875,20.25,0.8125,-7.125,0.4375,4.6875,1.75,93.25,-0.72686767578125,0.007080078125,-0.028076171875,0.6861572265625,36.0,6.0,-9.0,30.0,-978.0,-55.0,118,107.07120307264384,-89.96904447768426,
125,6.00860071182251,0.05000495910644531,19.998016554144257,20.803512497352383,102461.0,7.0,-964.0,-49.0,-2.375,40.375,19.875,5.8125,0.875,4.8125,4.5,1.5625,93.0,-0.72552490234375,0.0084228515625,-0.02716064453125,0.68756103515625,-16.0,30.0,14.0,27.0,-978.0,-51.0,85,102.65696245811507,-89.63044695881186,
126,6.058605670928955,0.05000495910644531,19.998016554144257,20.79686430239,102461.0,10.0,-965.0,-26.0,-2.75,40.0625,19.0625,-7.1875,-0.9375,-1.3125,4.4375,1.5,93.125,-0.72625732421875,0.00872802734375,-0.02691650390625,0.68682861328125,-21.0,20.0,40.0,26.0,-978.0,-54.0,95,101.12556996649207,-77.82932004672332,
127,6.106610536575317,0.048004865646362305,20.83122172170432,20.79713439056547,102461.0,10.0,-967.0,-42.0,-3.5,40.75,19.0625,-1.3125,-0.875,1.875,4.5625,1.4375,93.25,-0.726806640625,0.01031494140625,-0.02740478515625,0.68621826171875,-13.0,41.0,23.0,25.0,-978.0,-55.0,118,104.50045597319365,-48.202856299163045,
128,6.154615163803101,0.0480046272277832,20.831325181528314,20.797401071118376,102461.0,26.0,-981.0,-37.0,-3.875,41.1875,19.5,0.0,-0.375,4.375,4.625,1.3125,93.25,-0.72674560546875,0.01263427734375,-0.02801513671875,0.68621826171875,3.0,-8.0,5.0,22.0,-978.0,-55.0,90,101.60036477855493,-50.644833585651654,
129,6.201620101928711,0.04700493812561035,21.274360522031113,20.80101616670793,102461.0,37.0,-981.0,-19.0,-3.5,40.375,19.875,2.875,-1.875,2.1875,4.75,1.1875,93.125,-0.72601318359375,0.01470947265625,-0.028564453125,0.6868896484375,13.0,5.0,32.0,20.0,-978.0,-53.0,118,104.88029182284396,-26.560196783288404,
130,6.250624895095825,0.04900479316711426,20.406167139402843,20.797920557030487,102461.0,15.0,-981.0,4.0,-2.0,39.6875,19.0625,1.875,-1.3125,1.6875,4.5625,1.0625,92.75,-0.72381591796875,0.01495361328125,-0.02777099609375,0.68927001953125,-16.0,3.0,50.0,19.0,-979.0,-47.0,76,99.10423345827517,-44.82159990549802,
131,6.2976295948028564,0.04700469970703125,21.274468430449602,20.80147744924666,102461.0,-2.0,-954.0,-15.0,-2.75,40.75,19.5,-0.5625,-0.3125,-1.5625,4.6875,1.125,92.75,-0.723876953125,0.015380859375,-0.02838134765625,0.68914794921875,-12.0,38.0,43.0,19.0,-979.0,-47.0,76,94.48338676662014,-55.518491337110916,
132,6.341634035110474,0.04400444030761719,22.724979411382254,20.814824581358945,102461.5,27.0,-966.0,-68.0,-1.25,40.0625,19.5,-0.5,-5.9375,-0.1875,4.5,1.125,92.6875,-0.723876953125,0.013671875,-0.027099609375,0.68927001953125,9.0,11.0,-26.0,19.0,-979.0,-47.0,76,90.78670941329612,-61.21617641865102,
133,6.388638496398926,0.04700446128845215,21.27457633996277,20.818207208776627,102461.5,32.0,-975.0,-21.0,-2.0,40.375,19.5,2.0,-1.375,-0.3125,4.5,1.1875,92.8125,-0.7242431640625,0.01300048828125,-0.02734375,0.6888427734375,1.0,5.0,32.0,21.0,-979.0,-48.0,81,88.8293675306369,-57.30126499612883,
134,6.436643362045288,0.048004865646362305,20.83122172170432,20.818304271781273,102461.5,-2.0,-965.0,-14.0,-1.6875,40.75,19.0625,1.3125,4.1875,2.875,4.5,1.0625,92.625,-0.72308349609375,0.0142822265625,-0.027099609375,0.6900634765625,-21.0,13.0,30.0,19.0,-979.0,-45.0,118,94.66349402450953,-21.534615487637016,
135,6.483648061752319,0.04700469970703125,21.274468430449602,20.821611338897053,102461.5,11.0,-956.0,14.0,-2.375,41.1875,20.25,5.1875,0.6875,2.125,4.4375,1.0,92.375,-0.7215576171875,0.0155029296875,-0.02716064453125,0.691650390625,-6.0,23.0,55.0,17.0,-979.0,-40.0,76,90.93079521960763,-33.109928967162105,
136,6.533653020858765,0.05000495910644531,19.998016554144257,20.815308000871546,102461.5,1.0,-946.0,3.0,-1.6875,40.0625,18.5625,-3.9375,-1.9375,-1.5,4.375,0.875,92.3125,-0.72125244140625,0.016357421875,-0.02655029296875,0.6920166015625,-13.0,33.0,43.0,15.0,-979.0,-40.0,81,88.94463617568611,-34.43179146163085,
137,6.581657886505127,0.048004865646362305,20.83122172170432,20.815424071327303,102461.5,33.0,-940.0,0.0,-3.1875,40.375,19.875,-0.3125,-5.9375,2.25,4.375,0.875,92.3125,-0.72137451171875,0.0166015625,-0.02655029296875,0.69183349609375,18.0,39.0,39.0,15.0,-979.0,-40.0,90,89.15570894054889,-26.66605245645075,
138,6.626662492752075,0.04500460624694824,22.219947765187033,20.824962815133222,102461.5,-4.0,-1019.0,-62.0,-3.1875,40.0625,19.5,3.0,1.5,10.0625,4.125,0.4375,92.3125,-0.7210693359375,0.0203857421875,-0.0250244140625,0.692138671875,-12.0,-39.0,-22.0,7.0,-979.0,-39.0,123,95.92456715243912,8.747893214471059,
139,6.6736671924591064,0.04700469970703125,21.274468430449602,20.82812882204595,102461.5,-8.0,-966.0,1.0,-2.0,40.75,19.5,-0.375,1.0,0.5625,4.0,0.25,92.125,-0.72003173828125,0.0220947265625,-0.0242919921875,0.693115234375,-7.0,-5.0,34.0,4.0,-979.0,-37.0,85,93.7396537219513,-2.298259788458867,
140,6.723672151565552,0.05000495910644531,19.998016554144257,20.821955152498347,102462.75,5.0,-964.0,-21.0,-2.0,39.25,18.5625,2.125,-3.4375,0.875,3.9375,0.1875,92.0625,-0.7197265625,0.022216796875,-0.02398681640625,0.6934814453125,1.0,15.0,15.0,3.0,-979.0,-36.0,71,89.19172297756104,-20.028526693450686,
141,6.7686767578125,0.04500460624694824,22.219947765187033,20.831250338148568,102462.75,19.0,-958.0,0.0,-2.0,39.25,18.5625,-8.0,0.4375,0.75,3.875,0.1875,92.1875,-0.72027587890625,0.02166748046875,-0.02374267578125,0.69293212890625,15.0,21.0,38.0,4.0,-979.0,-37.0,71,85.55337838204883,-32.191586727566914,
142,6.816681385040283,0.0480046272277832,20.831325181528314,20.831250865212745,102462.75,6.0,-992.0,-30.0,-2.375,40.75,18.5625,2.3125,-2.5,3.5,3.875,0.0625,92.3125,-0.7210693359375,0.0234375,-0.0235595703125,0.69207763671875,4.0,-12.0,9.0,1.0,-979.0,-40.0,114,91.24270270563906,-2.0500363724761996,
143,6.8646862506866455,0.048004865646362305,20.83122172170432,20.8312506614117,102462.75,-32.0,-1015.0,-15.0,-3.5,39.6875,19.5,-0.8125,2.125,4.0,4.0,-0.125,92.25,-0.720458984375,0.02716064453125,-0.0244140625,0.69256591796875,-30.0,-35.0,22.0,-2.0,-979.0,-38.0,114,95.79416216451125,17.32246313104202,
144,6.912691116333008,0.048004865646362305,20.83122172170432,20.831250460441236,102462.75,-25.0,-982.0,41.0,-1.6875,40.75,18.5625,5.25,0.4375,0.9375,3.9375,-0.25,92.125,-0.71966552734375,0.02838134765625,-0.0240478515625,0.69329833984375,-20.0,-2.0,77.0,-4.0,-979.0,-36.0,90,94.635329731609,9.029991435215877,
145,6.953695058822632,0.04100394248962402,24.387898803951554,20.85222299416603,102462.75,-19.0,-951.0,-2.0,-1.25,40.375,18.25,4.3125,-3.625,3.6875,3.75,-0.3125,91.9375,-0.7186279296875,0.0284423828125,-0.02294921875,0.69439697265625,-13.0,28.0,31.0,-6.0,-980.0,-33.0,71,89.9082637852872,-15.832648039527612,
146,7.001699924468994,0.048004865646362305,20.83122172170432,20.852079005809802,102462.75,-26.0,-964.0,-38.0,-0.875,40.375,19.5,0.25,-1.25,3.5,3.5,-0.5,91.875,-0.71807861328125,0.02874755859375,-0.021240234375,0.69500732421875,-16.0,15.0,-6.0,-9.0,-980.0,-32.0,81,88.12661102822977,-20.088919154291915,
147,7.047704458236694,0.046004533767700195,21.736988033603343,20.857855330213262,102462.75,-14.0,-968.0,-61.0,-0.5,40.375,19.5,7.25,-3.0,2.875,3.25,-0.625,91.6875,-0.71722412109375,0.02880859375,-0.02001953125,0.69598388671875,-2.0,12.0,-32.0,-11.0,-980.0,-29.0,100,90.50128882258382,-5.747466763526054,
148,7.092709064483643,0.04500460624694824,22.219947765187033,20.86649806927821,102462.5,7.0,-937.0,-27.0,-0.875,40.75,18.5625,6.4375,-1.9375,2.5,3.0625,-0.6875,91.375,-0.71527099609375,0.02838134765625,-0.01898193359375,0.697998046875,19.0,42.0,-3.0,-12.0,-980.0,-24.0,67,85.80103105806707,-25.485869812916235,
149,7.142714023590088,0.05000495910644531,19.998016554144257,20.860417973882324,102462.5,-29.0,-989.0,-26.0,-0.5,41.875,17.75,-1.1875,3.75,0.5625,2.9375,-0.875,91.3125,-0.714599609375,0.02978515625,-0.01824951171875,0.69866943359375,-13.0,-9.0,-3.0,-15.0,-980.0,-22.0,81,84.84082484645366,-24.229139793380416,
150,7.192718982696533,0.05000495910644531,19.998016554144257,20.854422418122244,102462.5,-16.0,-992.0,2.0,-1.6875,41.5625,17.75,0.1875,-0.0625,1.375,3.1875,-0.875,91.25,-0.71441650390625,0.03106689453125,-0.01947021484375,0.69879150390625,-1.0,-12.0,24.0,-15.0,-980.0,-22.0,95,86.87265987716293,-11.256777718821478,
151,7.241724014282227,0.04900503158569336,20.4060678596102,20.85138838516847,102462.5,-27.0,-997.0,-5.0,-1.25,40.375,19.5,1.375,-2.0,-0.5,3.1875,-0.875,91.1875,-0.7137451171875,0.03143310546875,-0.01959228515625,0.699462890625,-11.0,-16.0,14.0,-15.0,-980.0,-20.0,123,94.09812790173035,20.483255990296108,
152,7.289728879928589,0.048004865646362305,20.83122172170432,20.85125558215397,102462.5,-11.0,-965.0,-4.0,-1.25,41.1875,18.25,-1.8125,-2.6875,-0.1875,3.1875,-0.8125,91.125,-0.71356201171875,0.03076171875,-0.01983642578125,0.69964599609375,2.0,14.0,14.0,-14.0,-980.0,-19.0,100,95.27850232138428,21.304333042324703,
153,7.337733507156372,0.0480046272277832,20.831325181528314,20.85112519428262,102462.5,-29.0,-989.0,-22.0,-0.5,40.75,18.25,2.6875,-0.8125,1.375,3.0625,-0.875,91.125,-0.7137451171875,0.03076171875,-0.0191650390625,0.69952392578125,-8.0,-19.0,3.0,-15.0,-980.0,-20.0,81,92.42280185710743,5.145861435381271,
154,7.388738632202148,0.05100512504577637,19.60587292164296,20.842529106230092,102462.5,-11.0,-956.0,-4.0,-1.25,41.1875,19.0625,2.5,-2.0625,-1.125,3.125,-0.875,90.9375,-0.7125244140625,0.03045654296875,-0.0191650390625,0.70074462890625,0.0,37.0,21.0,-15.0,-980.0,-17.0,81,90.13824148568595,-4.84147091647717,
155,7.43574333190918,0.04700469970703125,21.274468430449602,20.84525959023422,102462.5,-32.0,-965.0,-21.0,-0.5,41.1875,19.0625,0.3125,0.4375,-3.5,3.125,-0.8125,90.9375,-0.71246337890625,0.03009033203125,-0.019287109375,0.7008056640625,-15.0,17.0,3.0,-13.0,-980.0,-16.0,81,88.31059318854876,-11.649625933063751,
156,7.484748125076294,0.04900479316711426,20.406167139402843,20.842384725993682,102467.0,-2.0,-928.0,22.0,-0.875,41.1875,18.25,2.125,-1.875,1.375,3.125,-0.75,90.75,-0.71148681640625,0.0291748046875,-0.019287109375,0.70184326171875,5.0,30.0,22.0,-13.0,-980.0,-13.0,62,83.04847455083902,-30.795635232145383,
157,7.530752897262573,0.0460047721862793,21.736875382207526,20.847849098470547,102467.0,-50.0,-975.0,0.0,-0.875,40.375,17.75,-3.8125,0.875,1.5625,3.0625,-0.8125,90.875,-0.7120361328125,0.030029296875,-0.01898193359375,0.70123291015625,-35.0,5.0,15.0,-14.0,-980.0,-15.0,104,87.23877964067121,-6.419680275493846,
158,7.57475733757019,0.04400444030761719,22.724979411382254,20.85875401134405,102467.0,0.0,-957.0,19.0,-0.875,40.375,17.75,0.9375,-3.875,-1.3125,3.0,-0.8125,90.875,-0.71209716796875,0.029052734375,-0.0185546875,0.70123291015625,13.0,23.0,35.0,-14.0,-980.0,-15.0,90,87.79102371253697,-2.6257971877536277,
159,7.6187615394592285,0.044004201889038086,22.72510253728998,20.869533608120467,102467.0,-37.0,-981.0,11.0,-0.5,41.1875,18.25,-2.625,0.9375,1.6875,2.9375,-0.875,91.0,-0.7127685546875,0.02984619140625,-0.0181884765625,0.70050048828125,-21.0,-1.0,28.0,-15.0,-980.0,-17.0,118,93.83281897002959,25.359445596963536,
160,7.667766571044922,0.04900503158569336,20.4060678596102,20.866571578247207,102467.0,-33.0,-991.0,-1.0,-1.6875,40.75,19.0625,1.4375,2.125,1.125,2.875,-0.9375,90.9375,-0.7125244140625,0.0302734375,-0.01776123046875,0.70074462890625,-16.0,-11.0,15.0,-16.0,-980.0,-16.0,90,93.06625517602367,17.159045917729827,
161,7.717771768569946,0.050005197525024414,19.9979212060819,20.860943395043186,102467.0,-11.0,-942.0,8.0,-0.875,41.875,17.375,2.0625,-2.6875,1.25,2.875,-1.0,90.8125,-0.71160888671875,0.03094482421875,-0.01763916015625,0.70172119140625,6.0,38.0,23.0,-17.0,-980.0,-14.0,76,89.65300414081895,0.07565168246355114,
162,7.761775970458984,0.044004201889038086,22.72510253728998,20.871511960222204,102467.0,-38.0,-999.0,-13.0,-0.5,41.1875,18.5625,-4.25,0.0625,-0.75,2.8125,-1.0625,91.0,-0.71270751953125,0.0308837890625,-0.017333984375,0.7005615234375,-17.0,-14.0,7.0,-18.0,-980.0,-17.0,85,88.72240331265516,-4.16907850229098,
163,7.81178092956543,0.05000495910644531,19.998016554144257,20.86592052051666,102467.0,-17.0,-958.0,-3.0,-0.5,41.5625,19.0625,-1.0,-2.0625,1.0,2.6875,-1.0,91.0,-0.712890625,0.030029296875,-0.0167236328125,0.70037841796875,-5.0,24.0,17.0,-17.0,-980.0,-17.0,81,87.17792265012413,-9.512572773203027,
164,7.859785795211792,0.048004865646362305,20.83122172170432,20.86570859219972,102466.5,-27.0,-984.0,-256.0,-0.875,41.5625,18.5625,-5.5,0.25,-0.75,2.6875,-1.0,91.1875,-0.714111328125,0.03021240234375,-0.01666259765625,0.69921875,-9.0,-4.0,21.0,-18.0,-980.0,-21.0,81,85.94233812009931,-12.757805278733407,
165,7.90479040145874,0.04500460624694824,22.219947765187033,20.87341872714944,102466.5,-18.0,-974.0,-11.0,-0.875,39.6875,18.25,-0.9375,0.25,-1.3125,2.75,-1.0,91.375,-0.71490478515625,0.02978515625,-0.01678466796875,0.6983642578125,11.0,6.0,10.0,-17.0,-980.0,-23.0,62,81.15387049607945,-31.48614431918883,
166,7.9537951946258545,0.04900479316711426,20.406167139402843,20.87053990429139,102466.5,-10.0,-968.0,6.0,-1.6875,41.5625,18.5625,-0.875,0.25,3.9375,2.625,-1.0625,91.3125,-0.714599609375,0.0301513671875,-0.016357421875,0.69873046875,-7.0,3.0,30.0,-18.0,-980.0,-22.0,109,86.72309639686355,-2.4596045416527055,
167,8.002799987792969,0.04900479316711426,20.406167139402843,20.867696338123235,102466.5,-47.0,-978.0,12.0,-0.5,41.1875,18.5625,-1.8125,-0.25,-1.9375,2.625,-1.0625,91.375,-0.71514892578125,0.0302734375,-0.01629638671875,0.6981201171875,-1.0,11.0,39.0,-18.0,-980.0,-24.0,123,93.97847711749085,27.64321869570219,
168,8.045804500579834,0.043004512786865234,23.253373546076485,20.88044769020833,102466.5,-17.0,-970.0,-15.0,0.1875,40.75,18.25,-3.4375,-3.25,1.0,2.5,-1.0625,91.5,-0.7159423828125,0.02972412109375,-0.01531982421875,0.69732666015625,-4.0,-2.0,-1.0,-19.0,-980.0,-26.0,95,94.18278169399268,23.06472908347574,
169,8.090808868408203,0.04500436782836914,22.220065479280787,20.887899188903877,102466.5,-13.0,-972.0,-19.0,-0.1875,40.75,18.25,-1.0625,-3.0,-1.0,2.4375,-1.125,91.625,-0.71649169921875,0.02960205078125,-0.01507568359375,0.69683837890625,-6.0,0.0,11.0,-19.0,-980.0,-27.0,104,96.14622535519415,27.17735261013567,
170,8.137813568115234,0.04700469970703125,21.274468430449602,20.890132045550533,102466.5,-15.0,-977.0,-9.0,0.1875,40.375,18.25,-3.75,0.0,2.125,2.375,-1.0625,91.75,-0.71728515625,0.0284423828125,-0.01458740234375,0.696044921875,18.0,5.0,19.0,-18.0,-980.0,-29.0,81,93.11698028415533,8.852766361726472,
171,8.183818101882935,0.046004533767700195,21.736988033603343,20.89489256373578,102466.5,-26.0,-996.0,-15.0,-0.1875,40.0625,18.5625,0.1875,-0.5625,-2.75,2.375,-1.0625,91.875,-0.718017578125,0.02874755859375,-0.01470947265625,0.69525146484375,-7.0,-16.0,17.0,-18.0,-979.0,-32.0,118,98.09358422732427,28.717489161510464,
172,8.231822967529297,0.048004865646362305,20.83122172170432,20.894521259563014,102466.75,-37.0,-969.0,-7.0,-0.1875,40.375,18.25,-1.0625,1.0625,-2.0625,2.4375,-0.9375,91.8125,-0.7178955078125,0.02801513671875,-0.01513671875,0.6954345703125,-20.0,10.0,23.0,-16.0,-980.0,-31.0,95,97.47486738185943,20.39626577104204,
173,8.277827501296997,0.046004533767700195,21.736988033603343,20.899203320302796,102466.75,-14.0,-951.0,-5.0,-0.1875,41.1875,21.0625,1.4375,-3.4375,-0.625,2.375,-0.9375,91.75,-0.71746826171875,0.02703857421875,-0.0146484375,0.6959228515625,1.0,28.0,24.0,-16.0,-980.0,-30.0,104,98.77989390548754,21.990481802361494,
174,8.32683253288269,0.04900503158569336,20.4060678596102,20.89630112205012,102466.75,-56.0,-951.0,-25.0,-1.25,40.0625,19.0625,-2.0625,-1.625,0.5625,2.25,-1.0,91.75,-0.717529296875,0.02703857421875,-0.01385498046875,0.69586181640625,-39.0,28.0,5.0,-17.0,-980.0,-30.0,104,99.82391512439004,21.85325900984867,
175,8.374837398529053,0.048004865646362305,20.83122172170432,20.895928084614134,102466.75,-8.0,-931.0,-15.0,-1.25,40.0625,19.0625,2.0625,-3.0625,-0.375,2.1875,-0.9375,91.75,-0.7174072265625,0.0260009765625,-0.013427734375,0.69598388671875,7.0,48.0,15.0,-16.0,-980.0,-30.0,132,106.25913209951204,44.293293535087315,
176,8.420841932296753,0.046004533767700195,21.736988033603343,20.900522942365296,102466.75,-22.0,-951.0,-8.0,-0.5,38.875,19.5,-1.8125,0.6875,2.5,2.125,-1.0,91.8125,-0.71771240234375,0.02630615234375,-0.0130615234375,0.69573974609375,-5.0,28.0,22.0,-17.0,-980.0,-31.0,90,103.00730567960964,21.297652432715118,
177,8.470846891403198,0.05000495910644531,19.998016554144257,20.8951952820245,102466.75,-40.0,-982.0,-15.0,-1.6875,40.375,19.5,1.5625,0.3125,-1.1875,2.125,-1.0,91.75,-0.7176513671875,0.026611328125,-0.01312255859375,0.69580078125,-22.0,-2.0,15.0,-17.0,-980.0,-30.0,90,100.40584454368772,6.633309373946185,
178,8.51885175704956,0.048004865646362305,20.83122172170432,20.894834782481173,102466.75,-5.0,-966.0,-10.0,-1.25,41.5625,19.5,-1.0,-0.375,1.4375,2.0,-1.0,91.75,-0.71759033203125,0.02587890625,-0.01239013671875,0.6959228515625,12.0,13.0,19.0,-17.0,-980.0,-30.0,114,103.12467563495018,16.633962156347266,
179,8.56485629081726,0.046004533767700195,21.736988033603343,20.899358252153437,102466.75,-42.0,-979.0,-13.0,-0.5,41.1875,19.0625,-1.6875,-2.1875,0.8125,1.9375,-1.0625,91.8125,-0.71807861328125,0.02606201171875,-0.011962890625,0.69537353515625,-23.0,0.0,18.0,-18.0,-979.0,-32.0,100,102.49974050796015,10.590328249645703,
180,8.60986065864563,0.04500436782836914,22.220065479280787,20.90626168488014,102462.0,-49.0,-956.0,-20.0,-0.875,40.375,19.5,-5.25,-2.875,0.375,1.6875,-1.1875,91.9375,-0.7186279296875,0.02581787109375,-0.01025390625,0.69482421875,-28.0,23.0,13.0,-20.0,-979.0,-33.0,90,99.99979240636813,-2.6375395027191377,
181,8.65586543083191,0.0460047721862793,21.736875382207526,20.91067628608041,102462.0,-29.0,-955.0,-34.0,-0.5,40.75,19.0625,-6.0,-5.3125,1.6875,1.375,-1.25,92.1875,-0.72027587890625,0.024658203125,-0.00848388671875,0.6932373046875,-7.0,24.0,3.0,-21.0,-979.0,-38.0,81,96.19983392509451,-18.629876395176762,
182,8.70186996459961,0.046004533767700195,21.736988033603343,20.91504478237445,102462.0,-27.0,-984.0,-70.0,-1.6875,38.875,19.875,-5.0,-3.25,-4.1875,1.25,-1.1875,92.4375,-0.7216796875,0.02349853515625,-0.00775146484375,0.6917724609375,-6.0,-4.0,-28.0,-20.0,-979.0,-41.0,114,99.75986714007561,0.5729787625135287,
183,8.747874736785889,0.0460047721862793,21.736875382207526,20.919366761216015,102462.0,2.0,-954.0,-50.0,-0.5,40.375,19.0625,1.3125,-0.9375,3.25,1.125,-1.1875,92.375,-0.7215576171875,0.0223388671875,-0.00701904296875,0.6920166015625,22.0,24.0,-9.0,-20.0,-979.0,-41.0,95,98.80789371206049,-3.6802025443767032,
184,8.791878938674927,0.044004201889038086,22.72510253728998,20.928404642902382,102462.0,-12.0,-1009.0,-15.0,-0.5,40.75,20.75,-1.0,3.6875,0.125,1.25,-1.1875,92.4375,-0.721923828125,0.02325439453125,-0.007568359375,0.6915283203125,8.0,-29.0,26.0,-20.0,-979.0,-42.0,123,103.64631496964839,19.046561803956337,
185,8.837883472442627,0.046004533767700195,21.736988033603343,20.932613625971403,102462.0,-37.0,-1000.0,-15.0,-0.875,40.375,19.875,-0.3125,3.9375,4.0625,1.125,-1.375,92.375,-0.7213134765625,0.02532958984375,-0.00701904296875,0.69207763671875,-13.0,-21.0,26.0,-24.0,-979.0,-41.0,95,101.91705197571872,7.719455641964622,
186,8.88688850402832,0.04900503158569336,20.4060678596102,20.92971009096023,102462.0,-55.0,-988.0,-17.0,-0.1875,40.375,19.875,-0.8125,-2.9375,-2.625,1.1875,-1.375,92.4375,-0.72186279296875,0.0255126953125,-0.00732421875,0.6915283203125,-31.0,-9.0,24.0,-24.0,-979.0,-42.0,114,104.33364158057498,16.03818280667677,
187,8.93289303779602,0.046004533767700195,21.736988033603343,20.933867584530915,102462.0,0.0,-970.0,-19.0,-0.5,40.375,19.5,-1.8125,0.375,0.8125,1.125,-1.3125,92.4375,-0.721923828125,0.0244140625,-0.00701904296875,0.6915283203125,22.0,8.0,23.0,-23.0,-979.0,-42.0,109,105.26691326445999,16.88784933028328,
188,8.981897830963135,0.04900479316711426,20.406167139402843,20.93098847683515,102464.0,-36.0,-987.0,-32.0,-0.5,40.75,19.5,-0.75,-1.5,-2.375,1.125,-1.3125,92.625,-0.72271728515625,0.024658203125,-0.00701904296875,0.690673828125,-13.0,-7.0,12.0,-23.0,-979.0,-44.0,85,101.21353061156799,-3.032521314747415,
189,9.029902696609497,0.048004865646362305,20.83122172170432,20.930458095740587,102464.0,-5.0,-961.0,-22.0,0.1875,40.0625,19.875,-0.6875,-1.75,-1.875,1.125,-1.25,92.5625,-0.7225341796875,0.0234375,-0.00689697265625,0.69091796875,16.0,18.0,22.0,-22.0,-979.0,-44.0,90,98.9708244892544,-11.769678749905566,
190,9.075907468795776,0.0460047721862793,21.736875382207526,20.93454573586677,102464.0,-19.0,-964.0,-19.0,0.5625,40.375,19.5,-1.125,-1.375,-1.3125,1.1875,-1.1875,92.625,-0.722900390625,0.0225830078125,-0.0072021484375,0.6905517578125,0.0,15.0,25.0,-20.0,-979.0,-45.0,90,97.17665959140352,-17.21565075986757,
191,9.125912427902222,0.05000495910644531,19.998016554144257,20.929414073273687,102464.0,-28.0,-985.0,-24.0,-0.875,40.0625,19.875,0.1875,0.4375,0.375,1.1875,-1.125,92.5625,-0.72259521484375,0.02239990234375,-0.00732421875,0.69085693359375,-8.0,-6.0,20.0,-20.0,-979.0,-44.0,160,109.74132767312283,36.481167451216066,
192,9.172917127609253,0.04700469970703125,21.274468430449602,20.931182232324513,102464.0,-41.0,-956.0,-26.0,-0.875,40.0625,19.875,-1.4375,-5.25,-3.4375,1.125,-1.0,92.625,-0.72283935546875,0.020751953125,-0.007080078125,0.690673828125,-6.0,16.0,13.0,-18.0,-979.0,-45.0,137,115.19306213849828,52.38148451593767,
193,9.220921993255615,0.048004865646362305,20.83122172170432,20.930661829821837,102464.0,-38.0,-970.0,-26.0,-1.25,39.25,20.25,2.3125,-0.5625,-1.4375,1.1875,-0.875,92.625,-0.72308349609375,0.01947021484375,-0.00732421875,0.6904296875,-22.0,9.0,18.0,-16.0,-979.0,-46.0,118,115.75444971079864,44.24406541082977,
194,9.268926620483398,0.0480046272277832,20.831325181528314,20.93014735614364,102464.0,-17.0,-932.0,-28.0,-1.25,39.25,20.25,2.25,-2.6875,-3.3125,1.1875,-0.8125,92.5,-0.72222900390625,0.0184326171875,-0.0072021484375,0.69140625,-2.0,46.0,14.0,-14.0,-979.0,-43.0,81,108.80355976863892,6.436002591435084,
195,9.318931579589844,0.05000495910644531,19.998016554144257,20.925145585045982,102464.0,-24.0,-935.0,-12.0,-0.5,40.375,19.875,1.375,-0.25,3.125,1.125,-0.875,92.375,-0.72174072265625,0.018310546875,-0.00689697265625,0.69189453125,-9.0,44.0,28.0,-15.0,-979.0,-41.0,128,112.64284781491114,20.504431254244057,
196,9.36993670463562,0.05100512504577637,19.60587292164296,20.917964141959708,102462.5,-23.0,-981.0,-16.0,-0.5,39.6875,19.875,-1.25,-0.8125,1.0625,1.0,-0.9375,92.4375,-0.7218017578125,0.018798828125,-0.00628662109375,0.69183349609375,-7.0,-2.0,25.0,-16.0,-979.0,-41.0,90,108.11427825192891,-1.3537668703346988,
197,9.416941404342651,0.04700469970703125,21.274468430449602,20.919743634504602,102462.5,-17.0,-987.0,-21.0,-0.5,40.75,19.5,1.0,-0.6875,0.3125,0.8125,-1.0,92.3125,-0.7213134765625,0.01873779296875,-0.00518798828125,0.69232177734375,3.0,-11.0,21.0,-18.0,-979.0,-40.0,132,112.89142260154314,19.243227834445978,
198,9.465946435928345,0.04900503158569336,20.4060678596102,20.917084344412068,102462.5,-17.0,-972.0,-38.0,-0.1875,40.375,19.875,0.125,-5.0,-0.75,0.75,-1.0,92.3125,-0.72113037109375,0.0174560546875,-0.00457763671875,0.69256591796875,8.0,2.0,9.0,-17.0,-979.0,-39.0,128,115.91313808123451,27.72684849376011,
199,9.514951229095459,0.04900479316711426,20.406167139402843,20.914452970760838,102462.5,-27.0,-993.0,-40.0,0.1875,41.1875,20.75,0.3125,0.0625,-0.8125,0.6875,-1.0,92.3125,-0.7213134765625,0.01727294921875,-0.00421142578125,0.6923828125,-19.0,-13.0,5.0,-17.0,-979.0,-40.0,85,109.73051046498762,-3.0512677045562775,
200,9.56195592880249,0.04700469970703125,21.274468430449602,20.916222736141325,102462.5,-12.0,-939.0,-32.0,-0.1875,39.6875,19.0625,-0.5,-2.875,-1.8125,0.625,-0.9375,92.1875,-0.7205810546875,0.01605224609375,-0.00384521484375,0.69317626953125,9.0,46.0,14.0,-16.0,-979.0,-38.0,123,112.3844083719901,8.85103928438712,
201,9.606960535049438,0.04500460624694824,22.219947765187033,20.922330144553428,102462.5,-13.0,-962.0,-44.0,-1.25,40.375,19.875,-1.75,-0.375,1.0625,0.5625,-0.9375,92.3125,-0.72119140625,0.0157470703125,-0.0037841796875,0.6925048828125,6.0,-5.0,-5.0,-16.0,-979.0,-40.0,81,106.10752669759209,-20.81356515916702,
202,9.656965494155884,0.05000495910644531,19.998016554144257,20.917543934711638,102462.5,-47.0,-970.0,-47.0,-0.1875,40.75,19.875,0.3125,-0.6875,0.875,0.4375,-1.0625,92.3125,-0.7210693359375,0.01654052734375,-0.0030517578125,0.69268798828125,-22.0,-4.0,3.0,-18.0,-979.0,-39.0,114,107.68602135807367,-10.33749965714582,
203,9.702970027923584,0.046004533767700195,21.736988033603343,20.921429151671983,102462.5,-12.0,-970.0,-31.0,-0.875,40.0625,19.5,-2.625,-3.375,-0.8125,0.4375,-1.0,92.3125,-0.72119140625,0.01580810546875,-0.002685546875,0.69256591796875,4.0,9.0,8.0,-17.0,-979.0,-39.0,123,110.74881708645896,5.045191093739804,
204,9.750974893569946,0.048004865646362305,20.83122172170432,20.92098505294307,102462.25,-29.0,-969.0,-41.0,-0.5,40.75,19.875,2.875,-1.5,-0.875,0.4375,-0.9375,92.375,-0.72149658203125,0.01531982421875,-0.002685546875,0.6922607421875,-12.0,10.0,0.0,-16.0,-979.0,-40.0,109,110.39905366916717,2.5789530158426204,
205,9.79997968673706,0.04900479316711426,20.406167139402843,20.918410706242547,102462.25,-10.0,-936.0,-33.0,-0.1875,40.375,20.25,0.6875,-0.5625,1.625,0.3125,-1.0,92.25,-0.72076416015625,0.0152587890625,-0.0020751953125,0.6929931640625,-1.0,12.0,-3.0,-17.0,-979.0,-38.0,109,110.11924293533374,0.9211894922733135,
206,9.844984292984009,0.04500460624694824,22.219947765187033,20.924360452947106,102462.25,-27.0,-989.0,-24.0,-0.1875,40.75,19.875,0.5,0.625,-0.6875,0.375,-1.0,92.25,-0.72100830078125,0.01556396484375,-0.00238037109375,0.6927490234375,-3.0,-10.0,13.0,-17.0,-979.0,-39.0,137,115.49539434826701,24.62851230844139,
207,9.892989158630371,0.048004865646362305,20.83122172170432,20.923908505390294,102462.25,-6.0,-968.0,-31.0,0.1875,41.1875,19.5,1.1875,-2.25,-1.0625,0.3125,-1.0,92.1875,-0.7205810546875,0.01519775390625,-0.0020751953125,0.6932373046875,5.0,21.0,2.0,-17.0,-979.0,-38.0,95,111.39631547861362,2.6250456890525022,
208,9.938993692398071,0.046004533767700195,21.736988033603343,20.92767199953962,102462.25,-40.0,-990.0,-31.0,-0.1875,40.375,20.75,-2.125,2.1875,1.0,0.375,-1.0,92.25,-0.72100830078125,0.0150146484375,-0.00225830078125,0.6927490234375,-13.0,-10.0,3.0,-17.0,-979.0,-39.0,95,108.1170523828909,-12.156223982910324,
209,9.98399806022644,0.04500436782836914,22.220065479280787,20.933497656875527,102462.25,-28.0,-962.0,-14.0,-0.5,39.25,19.0625,3.125,-0.5,0.0625,0.375,-1.0,92.1875,-0.72052001953125,0.01544189453125,-0.00262451171875,0.6932373046875,-10.0,16.0,23.0,-17.0,-979.0,-38.0,132,112.89364190631274,11.50224720928769,
210,10.034003019332886,0.05000495910644531,19.998016554144257,20.928835639712805,102462.25,-29.0,-976.0,-28.0,0.1875,40.75,20.25,-2.375,1.125,0.375,0.375,-1.0,92.1875,-0.7205810546875,0.01556396484375,-0.00262451171875,0.6932373046875,-12.0,3.0,9.0,-17.0,-979.0,-38.0,90,108.3149135250502,-9.111299425653515,
211,10.085008382797241,0.05100536346435547,19.605781276293403,20.922144235389887,102462.25,-31.0,-970.0,-40.0,0.1875,40.375,20.25,5.25,-0.375,-2.4375,0.5,-0.9375,92.1875,-0.72052001953125,0.01531982421875,-0.00335693359375,0.69329833984375,-15.0,9.0,-2.0,-16.0,-979.0,-37.0,71,100.85193082004017,-36.55256085716026,
212,10.132012844085693,0.04700446128845215,21.27457633996277,20.923779239359103,102465.25,-28.0,-953.0,-39.0,-0.5,40.375,19.5,-0.9375,3.125,-0.4375,0.625,-0.875,92.0,-0.71942138671875,0.01556396484375,-0.00390625,0.69439697265625,-12.0,26.0,-4.0,-15.0,-979.0,-34.0,67,94.08154465603215,-58.04946814517146,
213,10.179017543792725,0.04700469970703125,21.274468430449602,20.925398653025184,102465.25,19.0,-920.0,-25.0,-0.5,40.375,19.5,-2.75,-3.375,3.125,0.5625,-0.875,92.125,-0.719970703125,0.01531982421875,-0.00347900390625,0.69378662109375,35.0,59.0,11.0,-15.0,-979.0,-36.0,,94.08154465603215,-58.04946814517146,
214,10.225022315979004,0.0460047721862793,21.736875382207526,20.92904967704321,102465.25,-43.0,-1039.0,-61.0,-0.1875,40.75,20.25,-4.625,8.0625,3.5,0.4375,-1.1875,92.4375,-0.721923828125,0.018310546875,-0.00286865234375,0.69171142578125,-23.0,-60.0,-19.0,-20.0,-979.0,-42.0,85,92.26523572482573,-54.33575069478208,
215,10.269026756286621,0.04400444030761719,22.724979411382254,20.936745526383852,102465.25,13.0,-999.0,-2.0,-1.25,39.25,19.5,7.4375,0.6875,-0.625,0.5,-1.25,92.125,-0.7200927734375,0.0191650390625,-0.0032958984375,0.69366455078125,35.0,-19.0,34.0,-21.0,-979.0,-36.0,109,95.61218857986059,-28.256713611518826,
216,10.318031549453735,0.04900479316711426,20.406167139402843,20.934225580211145,102465.25,-53.0,-991.0,-24.0,-1.25,40.75,19.5,0.5,1.4375,-4.5625,0.6875,-1.125,92.0625,-0.71978759765625,0.0191650390625,-0.0045166015625,0.69390869140625,-33.0,-11.0,11.0,-19.0,-979.0,-36.0,100,96.48975086388847,-19.02383436059322,
217,10.362036228179932,0.04400467872619629,22.724856286808727,20.941829889559802,102465.25,-2.0,-968.0,-30.0,-0.1875,40.0625,19.5,0.1875,3.0,-0.4375,0.8125,-0.9375,91.9375,-0.71905517578125,0.017822265625,-0.005126953125,0.6947021484375,14.0,11.0,3.0,-17.0,-979.0,-34.0,71,91.39180069111079,-38.389104495211505,
218,10.40604043006897,0.044004201889038086,22.72510253728998,20.949370845232735,102465.25,-13.0,-936.0,3.0,0.1875,42.25,19.875,2.1875,-2.75,-1.3125,0.9375,-0.9375,91.9375,-0.71875,0.01824951171875,-0.00604248046875,0.69500732421875,2.0,31.0,29.0,-16.0,-979.0,-33.0,132,99.51344055288864,6.201736129799453,
219,10.454045057296753,0.0480046272277832,20.831325181528314,20.94882878347091,102465.25,-40.0,-1006.0,-9.0,-0.875,41.1875,19.5,-1.5625,3.5,-3.625,1.125,-0.8125,92.0,-0.71917724609375,0.01788330078125,-0.00714111328125,0.694580078125,-25.0,-26.0,24.0,-14.0,-979.0,-34.0,109,101.41075244231091,12.866093091706599,
220,10.503050088882446,0.04900503158569336,20.4060678596102,20.946296374695155,102468.25,3.0,-932.0,-10.0,-0.5,40.0625,19.5,0.5625,-3.4375,-5.75,1.1875,-0.625,91.8125,-0.71820068359375,0.01568603515625,-0.0074462890625,0.69561767578125,14.0,47.0,21.0,-10.0,-980.0,-31.0,76,96.32860195384873,-10.44846707469678,
221,10.548054695129395,0.04500460624694824,22.219947765187033,20.95173056905437,102468.25,-4.0,-942.0,-46.0,-1.25,40.75,19.875,2.375,-2.4375,-2.875,1.375,-0.375,91.9375,-0.7188720703125,0.0137939453125,-0.00848388671875,0.6949462890625,2.0,37.0,-12.0,-6.0,-980.0,-33.0,137,104.462881563079,27.789879945147064,
222,10.596059322357178,0.0480046272277832,20.831325181528314,20.95118508175871,102468.25,13.0,-919.0,0.0,-0.5,40.75,19.875,2.375,3.0625,2.875,1.375,-0.375,91.75,-0.71783447265625,0.01397705078125,-0.00860595703125,0.69598388671875,20.0,60.0,30.0,-6.0,-980.0,-30.0,142,111.97030525046321,53.50982077759946,
223,10.642064094543457,0.0460047721862793,21.736875382207526,20.9545815566305,102468.25,-39.0,-1006.0,-7.0,-0.875,41.5625,19.0625,1.125,0.25,2.25,1.375,-0.5625,91.75,-0.7178955078125,0.015869140625,-0.00836181640625,0.6959228515625,-29.0,-26.0,22.0,-9.0,-980.0,-30.0,,111.97030525046321,53.50982077759946,
224,10.687068462371826,0.04500436782836914,22.220065479280787,20.95991064235091,102468.25,-2.0,-975.0,-36.0,-0.5,40.75,19.0625,2.0625,-3.0625,-1.0625,1.25,-0.5,91.6875,-0.7174072265625,0.0150146484375,-0.00787353515625,0.6964111328125,9.0,-4.0,-3.0,-9.0,-980.0,-29.0,100,109.57624420037058,32.16861796318877,
225,10.734073162078857,0.04700469970703125,21.274468430449602,20.96128809657046,102468.25,16.0,-956.0,-14.0,-0.875,40.75,19.875,0.25,1.0,4.1875,1.1875,-0.5625,91.5625,-0.716796875,0.0150146484375,-0.00738525390625,0.69708251953125,26.0,24.0,12.0,-10.0,-980.0,-27.0,95,106.66099536029647,13.330820487538709,
226,10.777077436447144,0.04300427436828613,23.25350246433779,20.970434826392502,102468.25,-29.0,-989.0,-37.0,0.1875,41.1875,19.0625,0.6875,-2.125,-0.6875,1.25,-0.5625,91.6875,-0.71734619140625,0.01544189453125,-0.00762939453125,0.696533203125,-19.0,-8.0,-8.0,-10.0,-980.0,-29.0,81,101.52879628823719,-13.203664363889546,
227,10.823082208633423,0.0460047721862793,21.736875382207526,20.973692671291477,102468.25,10.0,-974.0,-34.0,0.1875,41.1875,19.0625,-2.75,2.375,1.25,1.1875,-0.625,91.6875,-0.71728515625,0.01544189453125,-0.00732421875,0.69659423828125,21.0,5.0,-5.0,-10.0,-980.0,-28.0,81,97.42303703058975,-28.412206957677075,
228,10.871087074279785,0.048004865646362305,20.83122172170432,20.973063543887132,102462.5,-11.0,-967.0,-16.0,-0.5,40.375,19.5,2.0,-0.5,-0.875,1.3125,-0.5625,91.75,-0.7177734375,0.0157470703125,-0.0081787109375,0.696044921875,-1.0,12.0,13.0,-10.0,-980.0,-30.0,85,94.93842962447181,-33.081247119787974,
229,10.918091773986816,0.04700469970703125,21.274468430449602,20.974361155821196,102462.5,-35.0,-948.0,-6.0,-0.5,40.75,19.875,0.625,2.125,-0.625,1.375,-0.5625,91.625,-0.7171630859375,0.01666259765625,-0.0086669921875,0.69659423828125,-24.0,31.0,22.0,-10.0,-980.0,-28.0,114,98.75074369957744,-10.24400660827169,
230,10.96609616279602,0.0480043888092041,20.831428642379993,20.97373546479616,102462.5,-19.0,-965.0,-22.0,-0.875,40.75,19.875,-5.125,2.4375,3.0625,1.3125,-0.6875,91.6875,-0.717529296875,0.017333984375,-0.00811767578125,0.69622802734375,-7.0,14.0,7.0,-12.0,-980.0,-29.0,85,96.00059495966195,-19.653110732913504,
231,11.015101432800293,0.04900527000427246,20.405968580783583,20.9712095171578,102462.5,-9.0,-976.0,-26.0,-0.1875,40.75,19.5,0.25,-2.125,0.0625,1.3125,-0.6875,91.8125,-0.7181396484375,0.017333984375,-0.00799560546875,0.69561767578125,3.0,3.0,4.0,-12.0,-980.0,-31.0,114,99.60047596772957,-1.0306768372933597,
232,11.059105634689331,0.044004201889038086,22.72510253728998,20.978188260746933,102462.5,-25.0,-985.0,-15.0,0.1875,41.1875,19.0625,0.3125,4.5,4.25,1.25,-0.8125,91.8125,-0.71795654296875,0.01898193359375,-0.00787353515625,0.69580078125,-10.0,-5.0,16.0,-14.0,-980.0,-31.0,123,104.28038077418367,20.44572184845046,
233,11.10411024093628,0.04500460624694824,22.219947765187033,20.983221072592112,102462.5,-20.0,-985.0,-1.0,-1.25,41.1875,19.0625,1.5,-2.5,0.125,1.1875,-0.875,91.6875,-0.717529296875,0.01947021484375,-0.00750732421875,0.69622802734375,-4.0,-5.0,28.0,-16.0,-980.0,-29.0,118,107.02430461934694,28.550546380996153,
234,11.15011477470398,0.046004533767700195,21.736988033603343,20.986331058301808,102462.5,-1.0,-982.0,-22.0,-0.1875,40.375,19.0625,-3.625,-2.6875,0.3125,1.125,-0.875,91.8125,-0.71795654296875,0.01837158203125,-0.0069580078125,0.69580078125,13.0,-2.0,8.0,-15.0,-980.0,-31.0,104,106.41944369547755,20.21086617196832,
235,11.196119546890259,0.0460047721862793,21.736875382207526,20.9894150393626,102462.5,-24.0,-992.0,-48.0,-0.1875,41.1875,19.5,-1.75,-0.5625,0.4375,1.0625,-0.875,91.875,-0.71844482421875,0.018310546875,-0.00665283203125,0.6953125,-10.0,-3.0,-2.0,-15.0,-980.0,-32.0,114,107.93555495638205,22.759797246343165,
236,11.240123748779297,0.044004201889038086,22.72510253728998,20.99621011962881,102463.5,-13.0,-935.0,-14.0,-0.5,40.75,19.0625,3.5,-0.5625,1.0,1.0625,-0.875,91.75,-0.7177734375,0.01824951171875,-0.00665283203125,0.696044921875,1.0,44.0,16.0,-15.0,-980.0,-30.0,142,114.74844396510565,49.172558056758476,
237,11.286128282546997,0.046004533767700195,21.736988033603343,20.999229679721044,102463.5,-44.0,-989.0,-14.0,-0.875,40.0625,19.0625,-2.375,2.4375,1.5625,1.0625,-0.9375,91.8125,-0.718017578125,0.019287109375,-0.00665283203125,0.69573974609375,-27.0,-9.0,16.0,-16.0,-980.0,-31.0,100,111.79875517208453,26.51457644605597,
238,11.33413314819336,0.048004865646362305,20.83122172170432,20.99851809469318,102463.5,-13.0,-957.0,-5.0,0.5625,41.1875,19.5,2.4375,-4.375,-0.0625,0.9375,-1.0,91.6875,-0.71722412109375,0.01873779296875,-0.0059814453125,0.69659423828125,3.0,22.0,23.0,-17.0,-980.0,-28.0,104,110.23900413766762,14.713357231125531,
239,11.382138013839722,0.048004865646362305,20.83122172170432,20.997812511972366,102463.5,-31.0,-979.0,-29.0,-0.5,40.75,20.25,-2.6875,-1.125,2.3125,0.8125,-1.0625,91.75,-0.71759033203125,0.0185546875,-0.0052490234375,0.69622802734375,4.0,1.0,10.0,-17.0,-980.0,-29.0,95,107.1912033101341,-0.927197175488514,
240,11.430142879486084,0.048004865646362305,20.83122172170432,20.997112855932276,102463.5,-9.0,-990.0,-30.0,-0.5,40.75,20.25,-0.4375,-2.0,-0.9375,0.75,-1.0,91.8125,-0.7181396484375,0.01806640625,-0.00457763671875,0.6956787109375,8.0,-10.0,1.0,-18.0,-979.0,-31.0,137,113.15296264810729,24.096388383761337,
241,11.486148595809937,0.05600571632385254,17.855320235840022,20.98179367868487,102463.5,-18.0,-979.0,-16.0,-0.1875,40.75,19.875,1.75,-0.5625,-2.375,0.75,-0.9375,91.75,-0.7177734375,0.01751708984375,-0.00494384765625,0.696044921875,-1.0,0.0,13.0,-16.0,-980.0,-30.0,109,112.32237011848584,16.311011586631565,
242,11.531152725219727,0.04500412940979004,22.22018319462177,20.986626902505854,102463.5,-8.0,-972.0,-3.0,-0.1875,40.75,19.875,2.4375,0.75,-1.1875,0.875,-0.875,91.625,-0.717041015625,0.01708984375,-0.0054931640625,0.69677734375,6.0,7.0,24.0,-15.0,-980.0,-28.0,109,111.65789609478867,10.095862362381553,
243,11.578157663345337,0.04700493812561035,21.274360522031113,20.98779504180536,102463.5,-14.0,-945.0,-8.0,-0.5,40.75,19.5,-4.875,-3.0625,0.5,0.75,-0.875,91.6875,-0.71746826171875,0.01641845703125,-0.0048828125,0.69635009765625,1.0,34.0,21.0,-15.0,-980.0,-29.0,137,116.72631687583095,29.642172084554833,
244,11.622162103652954,0.04400444030761719,22.724979411382254,20.994372460465726,102462.25,-49.0,-982.0,-40.0,-1.6875,40.375,19.0625,0.875,-2.0625,-0.8125,0.6875,-0.875,91.8125,-0.7183837890625,0.01605224609375,-0.00445556640625,0.6954345703125,-33.0,-2.0,-8.0,-15.0,-980.0,-32.0,137,120.78105350066477,42.142498931229106,
245,11.671166896820068,0.04900479316711426,20.406167139402843,20.991902709124382,102462.25,-9.0,-930.0,-5.0,0.1875,39.6875,18.25,2.125,-2.9375,-0.5625,0.6875,-0.8125,91.6875,-0.71734619140625,0.0146484375,-0.00421142578125,0.696533203125,4.0,49.0,23.0,-14.0,-980.0,-29.0,104,117.42484280053182,20.01651984459025,
246,11.720171689987183,0.04900479316711426,20.406167139402843,20.989453611004997,102462.25,-50.0,-974.0,-22.0,0.5625,40.375,20.25,-2.9375,0.75,-1.6875,0.625,-0.8125,91.75,-0.71795654296875,0.0145263671875,-0.004150390625,0.6959228515625,-36.0,2.0,10.0,-14.0,-980.0,-30.0,85,110.93987424042547,-10.453454590588368,
247,11.770176887512207,0.050005197525024414,19.9979212060819,20.98524111919332,102462.25,-26.0,-957.0,-28.0,0.5625,41.1875,20.25,-0.8125,-3.4375,0.1875,0.4375,-0.8125,91.75,-0.71771240234375,0.01300048828125,-0.00274658203125,0.69622802734375,-12.0,23.0,1.0,-13.0,-980.0,-30.0,132,115.15189939234038,8.48358574873523,
248,11.817181587219238,0.04700469970703125,21.274468430449602,20.98639156634625,102462.25,-22.0,-957.0,-48.0,-0.5,41.875,19.875,0.875,-5.0625,-2.3125,0.375,-0.75,91.75,-0.71795654296875,0.01171875,-0.0020751953125,0.69598388671875,10.0,39.0,-17.0,-13.0,-980.0,-30.0,104,112.92151951387231,-2.7031606634876146,
249,11.86418628692627,0.04700469970703125,21.274468430449602,20.987532897589897,102462.25,40.0,-977.0,-36.0,0.5625,40.75,19.0625,-2.0625,3.9375,3.4375,0.1875,-0.75,91.75,-0.718017578125,0.01190185546875,-0.00140380859375,0.6959228515625,54.0,2.0,-5.0,-14.0,-980.0,-30.0,109,112.13721561109786,-5.499658254680798,
250,11.912190914154053,0.0480046272277832,20.831325181528314,20.98690340019234,102462.25,-62.0,-1024.0,0.0,-0.1875,40.0625,19.0625,4.0625,4.6875,3.0625,0.25,-1.0,91.75,-0.717529296875,0.01458740234375,-0.001953125,0.69635009765625,-44.0,-44.0,30.0,-17.0,-980.0,-29.0,104,110.50977248887828,-11.180085982424174,
251,11.958195686340332,0.0460047721862793,21.736875382207526,20.98978864233787,102462.25,36.0,-969.0,4.0,-0.5,40.375,19.5,-0.0625,-5.625,-0.625,0.125,-0.875,91.5,-0.71673583984375,0.0125732421875,-0.00103759765625,0.697265625,43.0,-5.0,6.0,-15.0,-980.0,-27.0,128,114.00781799110263,6.263247046689079,
252,12.005200386047363,0.04700469970703125,21.274468430449602,20.990903266627555,102465.25,-47.0,-1004.0,-3.0,0.1875,40.75,18.5625,1.8125,5.5625,-2.625,0.375,-0.8125,91.625,-0.71661376953125,0.01318359375,-0.00274658203125,0.69732666015625,-32.0,-24.0,22.0,-14.0,-980.0,-26.0,137,118.60625439288211,24.57645564916883,
253,12.053205251693726,0.048004865646362305,20.83122172170432,20.99026729545224,102465.25,-97.0,-944.0,-40.0,-0.875,40.375,19.0625,4.0625,3.9375,-3.5625,0.5,-0.8125,91.1875,-0.714599609375,0.01348876953125,-0.00311279296875,0.69940185546875,-45.0,43.0,-23.0,-14.0,-980.0,-21.0,104,115.68500351430569,7.490519568065293,
254,12.100209712982178,0.04700446128845215,21.27457633996277,20.991371722052577,102465.25,-90.0,-983.0,-97.0,-0.1875,40.0625,18.5625,7.6875,2.125,-10.75,1.0,-0.375,91.0625,-0.71368408203125,0.01177978515625,-0.00634765625,0.70037841796875,-83.0,-2.0,-79.0,-7.0,-980.0,-18.0,109,114.34800281144456,0.30359095053162566,
255,12.146214246749878,0.046004533767700195,21.736988033603343,20.994195789707373,102465.25,-135.0,-1169.0,30.0,-0.875,41.1875,18.25,19.8125,19.0,8.8125,1.625,-0.25,90.25,-0.70867919921875,0.0133056640625,-0.01007080078125,0.705322265625,-131.0,-188.0,34.0,-4.0,-980.0,-4.0,137,118.87840224915566,19.938320433419186,
256,12.192219018936157,0.0460047721862793,21.736875382207526,20.996998134826608,102465.25,-360.0,-991.0,43.0,-0.5,40.75,18.5625,38.9375,6.625,-21.5625,2.8125,0.0,88.875,-0.7001953125,0.0174560546875,-0.01751708984375,0.7135009765625,-360.0,-11.0,25.0,-3.0,-980.0,12.0,165,128.1027217993245,56.05223325627156,
257,12.24022388458252,0.048004865646362305,20.83122172170432,20.996347977238454,102465.25,-90.0,-765.0,164.0,-1.25,41.5625,17.0,39.1875,12.875,-22.5625,4.4375,1.25,86.8125,-0.6873779296875,0.0115966796875,-0.0281982421875,0.7257080078125,-112.0,213.0,110.0,21.0,-978.0,47.0,146,131.68217743945962,59.75467342154916,
258,12.296229362487793,0.05600547790527344,17.855396246977488,20.98204192474505,102465.25,77.0,-859.0,132.0,-2.75,43.0625,15.75,28.0625,2.875,-7.875,5.4375,1.875,85.3125,-0.67779541015625,0.00994873046875,-0.03515625,0.734375,44.0,117.0,53.0,32.0,-976.0,79.0,109,127.1457419515677,31.603768100207148,
259,12.345234394073486,0.04900503158569336,20.4060678596102,20.979755566596353,102465.25,102.0,-947.0,152.0,-2.75,43.0625,13.5625,25.3125,-8.125,2.0,5.3125,1.8125,83.9375,-0.66888427734375,0.0093994140625,-0.03466796875,0.74249267578125,70.0,27.0,49.0,31.0,-974.0,102.0,123,126.31659356125417,21.899082816480806,
260,12.388238430023193,0.04300403594970703,23.253631384028562,20.98764900826285,102461.25,252.0,-1046.0,130.0,-3.5,43.0625,13.25,3.9375,-1.3125,-4.875,5.1875,1.9375,83.375,-0.66534423828125,0.00762939453125,-0.03369140625,0.7457275390625,221.0,-88.0,3.0,32.0,-973.0,112.0,114,123.85327484900334,6.0630451899725255,
261,12.43924355506897,0.05100512504577637,19.60587292164296,20.981983256822957,102461.25,237.0,-1012.0,152.0,-2.75,42.6875,13.25,10.3125,-11.125,3.4375,5.0,2.0,83.0625,-0.66326904296875,0.0052490234375,-0.0328369140625,0.7476806640625,202.0,-39.0,34.0,34.0,-972.0,117.0,109,120.88261987920268,-6.798020614413759,
262,12.485248327255249,0.0460047721862793,21.736875382207526,20.98476483067261,102461.25,96.0,-1072.0,98.0,-2.75,43.0625,12.75,7.625,3.5,-3.875,5.4375,2.625,82.75,-0.6612548828125,0.00103759765625,-0.03582763671875,0.749267578125,51.0,-100.0,-24.0,44.0,-971.0,123.0,100,116.70609590336215,-23.595332730260488,
263,12.53125286102295,0.046004533767700195,21.736988033603343,20.987526380385468,102461.25,88.0,-1024.0,137.0,-2.75,43.375,13.5625,17.875,0.375,-6.1875,5.625,2.875,81.9375,-0.65606689453125,-0.0013427734375,-0.03741455078125,0.7537841796875,38.0,-54.0,0.0,50.0,-969.0,136.0,128,118.96487672268972,-9.056447856157165,
264,12.57725739479065,0.046004533767700195,21.736988033603343,20.990267727950425,102461.25,98.0,-897.0,200.0,-3.5,44.5625,11.5625,2.25,-10.0,-4.875,5.75,3.3125,81.4375,-0.652587890625,-0.00518798828125,-0.03839111328125,0.7567138671875,42.0,70.0,55.0,56.0,-968.0,145.0,95,114.17190137815179,-28.082127826841127,
265,12.626262426376343,0.04900503158569336,20.4060678596102,20.9880003322609,102461.25,53.0,-978.0,166.0,-3.5,44.5625,11.5625,-7.625,0.0625,-5.0625,5.9375,3.5,81.75,-0.65460205078125,-0.00677490234375,-0.039306640625,0.75494384765625,-7.0,-9.0,26.0,60.0,-968.0,140.0,132,117.73752110252144,-7.913646650062546,
266,12.67026686668396,0.04400444030761719,22.724979411382254,20.99403294333429,102461.25,22.0,-1005.0,180.0,-3.5,43.75,11.5625,0.375,-10.5,-3.25,5.75,3.6875,81.8125,-0.6549072265625,-0.00994873046875,-0.0382080078125,0.75469970703125,-41.0,-36.0,41.0,63.0,-968.0,139.0,90,112.19001688201716,-31.544301159153225,
267,12.718271732330322,0.048004865646362305,20.83122172170432,20.993418415591485,102461.25,56.0,-939.0,147.0,-4.25,43.75,12.375,-5.6875,-9.8125,-5.4375,5.625,3.9375,81.9375,-0.65576171875,-0.01318359375,-0.03729248046875,0.75396728515625,-10.0,28.0,10.0,67.0,-968.0,136.0,118,113.35201350561374,-20.394279066120156,
268,12.766276597976685,0.048004865646362305,20.83122172170432,20.992808509450207,102463.75,55.0,-954.0,134.0,-3.875,43.75,12.375,-1.4375,-8.125,-2.25,5.625,4.1875,82.1875,-0.65728759765625,-0.016845703125,-0.03704833984375,0.7525634765625,-17.0,14.0,1.0,72.0,-968.0,132.0,118,114.28161080449101,-12.44249376393416,
269,12.812280893325806,0.046004295349121094,21.737100686166794,20.99548099512304,102463.75,55.0,-947.0,143.0,-4.6875,43.0625,12.0,5.0,-4.6875,-2.25,5.625,4.25,82.0625,-0.656494140625,-0.01751708984375,-0.03717041015625,0.75323486328125,-18.0,20.0,9.0,73.0,-968.0,134.0,123,116.0252886435928,-2.3734948605886457,
270,12.86128568649292,0.04900479316711426,20.406167139402843,20.993235558367022,102463.75,39.0,-974.0,148.0,-4.25,44.875,12.375,-3.625,-3.0,-0.625,5.4375,4.3125,82.0,-0.656005859375,-0.01885986328125,-0.03607177734375,0.753662109375,-34.0,-5.0,12.0,74.0,-968.0,135.0,137,120.22023091487425,15.221742737112168,
271,12.905290365219116,0.04400467872619629,22.724856286808727,20.999140068197818,102463.75,27.0,-944.0,148.0,-3.875,43.0625,12.0,3.9375,-5.1875,-6.0,5.5625,4.4375,82.0,-0.65625,-0.0198974609375,-0.0367431640625,0.75335693359375,-48.0,24.0,13.0,76.0,-968.0,135.0,165,129.1761847318994,52.88194687032831,
272,12.949294805526733,0.04400444030761719,22.724979411382254,21.00500483500545,102463.75,76.0,-894.0,156.0,-3.5,43.75,11.5625,5.5625,-6.8125,-0.4375,5.375,4.5625,81.8125,-0.65484619140625,-0.02215576171875,-0.035400390625,0.75457763671875,-12.0,73.0,3.0,78.0,-967.0,138.0,132,129.74094778551952,44.87240324942793,
273,12.994299173355103,0.04500436782836914,22.220065479280787,21.009213067818873,102463.75,32.0,-981.0,142.0,-3.875,43.75,12.75,-1.0,-1.9375,3.0,5.1875,4.5,81.8125,-0.65496826171875,-0.0225830078125,-0.03424072265625,0.75457763671875,-44.0,-14.0,4.0,77.0,-967.0,138.0,151,133.99275822841562,54.79302388887059,
274,13.040303707122803,0.046004533767700195,21.736988033603343,21.011780565381866,102463.75,88.0,-949.0,125.0,-3.875,44.1875,12.0,-0.125,-8.875,-1.0,4.9375,4.5625,81.875,-0.65509033203125,-0.02471923828125,-0.03265380859375,0.75445556640625,9.0,17.0,-11.0,78.0,-967.0,137.0,175,142.1942065827325,79.48937605829686,
275,13.086308479309082,0.0460047721862793,21.736875382207526,21.01432962816105,102463.75,58.0,-986.0,122.0,-3.875,43.75,12.375,4.25,-0.9375,6.125,4.625,4.4375,81.8125,-0.65460205078125,-0.02471923828125,-0.03118896484375,0.75494384765625,-15.0,-17.0,-12.0,77.0,-967.0,138.0,156,144.955365266186,75.59529328918322,
276,13.132313013076782,0.046004533767700195,21.736988033603343,21.016861212885125,102460.25,52.0,-1000.0,161.0,-3.875,43.75,12.375,6.0,1.5,-0.75,4.625,4.375,81.625,-0.6534423828125,-0.0240478515625,-0.03082275390625,0.7559814453125,-22.0,-32.0,19.0,75.0,-967.0,142.0,170,149.9642922129488,82.2520316519419,
277,13.17731761932373,0.04500460624694824,22.219947765187033,21.020970124738927,102460.25,82.0,-939.0,164.0,-3.5,43.75,12.0,0.6875,-2.0625,-2.9375,4.625,4.4375,81.375,-0.65185546875,-0.02490234375,-0.0308837890625,0.75732421875,6.0,26.0,18.0,76.0,-966.0,146.0,189,157.77143377035907,100.49648084176891,
278,13.226322412490845,0.04900479316711426,20.406167139402843,21.018692220708214,102460.25,61.0,-993.0,145.0,-4.25,43.75,11.5625,5.9375,-1.6875,-0.625,4.75,4.5,81.3125,-0.6513671875,-0.02484130859375,-0.031494140625,0.75775146484375,-14.0,-15.0,4.0,77.0,-966.0,147.0,179,162.01714701628725,97.72493149789257,
279,13.273326873779297,0.04700446128845215,21.27457633996277,21.019598375984295,102460.25,95.0,-943.0,161.0,-3.5,43.75,11.5625,-0.625,-3.25,-2.8125,4.6875,4.625,81.125,-0.64996337890625,-0.02679443359375,-0.0311279296875,0.7589111328125,14.0,37.0,18.0,79.0,-965.0,150.0,193,168.21371761302981,104.54582803958772,
280,13.319331645965576,0.0460047721862793,21.736875382207526,21.022075840030002,102460.25,84.0,-995.0,124.0,-3.5,44.5625,12.375,-5.5625,-0.75,-1.125,4.625,4.6875,81.375,-0.65179443359375,-0.02783203125,-0.03070068359375,0.75726318359375,0.0,-39.0,-13.0,80.0,-966.0,145.0,193,173.17097409042384,105.18771568902118,
281,13.367336511611938,0.048004865646362305,20.83122172170432,21.02139044348146,102460.25,79.0,-956.0,139.0,-4.25,43.375,12.375,3.5625,-3.4375,-1.8125,4.6875,4.75,81.375,-0.651611328125,-0.0281982421875,-0.03125,0.75738525390625,-2.0,9.0,-6.0,81.0,-966.0,146.0,203,179.13677927233908,109.00517464981074,
282,13.415341138839722,0.0480046272277832,20.831325181528314,21.02071032570029,102460.25,81.0,-975.0,143.0,-3.1875,43.75,12.375,-4.875,3.0625,-2.0,4.75,4.875,81.4375,-0.6522216796875,-0.02886962890625,-0.03167724609375,0.7568359375,-10.0,-20.0,4.0,83.0,-966.0,144.0,198,182.90942341787127,102.92197511780259,
283,13.464346170425415,0.04900503158569336,20.4060678596102,21.018473263975686,102460.25,72.0,-945.0,155.0,-5.375,43.375,12.0,7.1875,-1.75,-0.875,5.125,4.875,81.25,-0.65106201171875,-0.02740478515625,-0.03399658203125,0.7578125,-5.0,35.0,30.0,84.0,-965.0,147.0,179,182.12753873429702,79.14654171196088,
284,13.510350704193115,0.046004533767700195,21.736988033603343,21.0209199019428,102464.0,54.0,-973.0,164.0,-3.5,43.75,12.0,-1.125,1.4375,-1.375,5.1875,4.9375,81.25,-0.6510009765625,-0.02740478515625,-0.034423828125,0.75775146484375,-35.0,-11.0,23.0,84.0,-965.0,147.0,179,181.50203098743762,60.59790248788692,
285,13.556355476379395,0.0460047721862793,21.736875382207526,21.023349564459583,102464.0,74.0,-946.0,163.0,-3.875,44.5625,12.75,2.125,-3.1875,-1.0,5.125,4.9375,81.1875,-0.6505126953125,-0.0281982421875,-0.03411865234375,0.7581787109375,-10.0,19.0,14.0,85.0,-965.0,149.0,203,185.8016247899501,67.17026892617464,
286,13.601359844207764,0.04500436782836914,22.220065479280787,21.027309274652794,102464.0,67.0,-979.0,158.0,-3.875,44.5625,11.1875,-2.8125,-3.1875,-2.625,5.125,5.0625,81.3125,-0.65130615234375,-0.02899169921875,-0.03411865234375,0.75750732421875,-19.0,-13.0,11.0,86.0,-965.0,147.0,175,183.64129983196008,44.1357027363272,
287,13.647364377975464,0.046004533767700195,21.736988033603343,21.029701563707746,102464.0,95.0,-946.0,134.0,-3.5,44.5625,12.0,-2.0,-1.9375,-3.0625,5.0625,5.1875,81.375,-0.65155029296875,-0.031005859375,-0.03350830078125,0.75726318359375,6.0,19.0,-11.0,88.0,-965.0,146.0,175,181.91303986556807,27.795128947377965,
288,13.694369077682495,0.04700469970703125,21.274468430449602,21.03054170413365,102464.0,79.0,-944.0,146.0,-4.6875,45.25,11.1875,0.5,0.4375,-0.75,5.125,5.1875,81.375,-0.65167236328125,-0.03094482421875,-0.0343017578125,0.757080078125,-10.0,21.0,0.0,89.0,-965.0,145.0,184,182.33043189245447,24.01206185772561,
289,13.751374959945679,0.057005882263183594,17.542049351735674,21.016080271375397,102464.0,79.0,-968.0,167.0,-5.0,43.75,12.75,3.3125,2.9375,0.25,5.3125,5.25,81.25,-0.6510009765625,-0.030029296875,-0.03546142578125,0.75762939453125,-10.0,-2.0,20.0,89.0,-965.0,147.0,189,183.66434551396358,23.88956520207355,
290,13.796379327774048,0.04500436782836914,22.220065479280787,21.02000772160485,102464.0,70.0,-947.0,191.0,-4.25,44.5625,12.75,-1.125,2.875,2.125,5.25,5.125,81.0625,-0.6497802734375,-0.02880859375,-0.03515625,0.7587890625,-17.0,17.0,40.0,87.0,-964.0,150.0,212,189.33147641117088,44.29645608477914,
291,13.840383768081665,0.04400444030761719,22.724979411382254,21.025428548527437,102464.0,56.0,-988.0,172.0,-3.875,43.0625,12.0,-0.625,-1.125,-0.1875,5.1875,5.0,81.0625,-0.64971923828125,-0.02813720703125,-0.03472900390625,0.75885009765625,-24.0,-28.0,17.0,86.0,-965.0,151.0,170,185.4651811289367,17.864868730404112,
292,13.889388799667358,0.04900503158569336,20.4060678596102,21.02324329829353,102459.75,72.0,-938.0,172.0,-3.875,44.5625,11.5625,1.625,-3.125,0.25,5.125,5.0,80.9375,-0.6490478515625,-0.0289306640625,-0.03411865234375,0.75946044921875,-14.0,25.0,19.0,86.0,-964.0,152.0,193,186.97214490314937,20.442135992034878,
293,13.945394277572632,0.05600547790527344,17.855396246977488,21.010521048602456,102459.75,65.0,-972.0,155.0,-5.0,44.1875,12.0,-0.25,0.125,3.1875,5.1875,4.9375,81.0625,-0.64990234375,-0.02789306640625,-0.034423828125,0.75872802734375,-20.0,-7.0,4.0,85.0,-965.0,150.0,193,188.1777159225195,20.658898444573136,
294,13.993399143218994,0.048004865646362305,20.83122172170432,21.009905955728296,102459.75,71.0,-957.0,166.0,-3.5,44.1875,11.5625,2.5,-1.5,-0.125,5.0625,4.875,81.0,-0.64935302734375,-0.02777099609375,-0.03363037109375,0.75921630859375,-12.0,8.0,14.0,84.0,-965.0,152.0,198,190.1421727380156,24.711525852921028,
295,14.03640341758728,0.04300427436828613,23.25350246433779,21.01677981343654,102459.75,71.0,-968.0,162.0,-3.875,43.75,11.5625,-1.25,1.0,1.4375,5.0,4.875,81.0,-0.64923095703125,-0.02764892578125,-0.03326416015625,0.75933837890625,-11.0,-2.0,9.0,83.0,-965.0,152.0,179,187.9137381904125,9.405439033475922,
296,14.087408542633057,0.05100512504577637,19.60587292164296,21.011671458537474,102459.75,82.0,-954.0,156.0,-3.875,43.375,11.5625,-3.375,1.6875,0.4375,4.9375,4.8125,81.0625,-0.6495361328125,-0.02728271484375,-0.03289794921875,0.7591552734375,0.0,11.0,4.0,82.0,-965.0,151.0,198,189.93099055233,15.434349918508516,
297,14.130412578582764,0.04300403594970703,23.253631384028562,21.01849456612173,102459.75,77.0,-1007.0,156.0,-3.875,43.375,11.5625,1.5,-0.875,-1.8125,5.0,4.875,81.125,-0.65008544921875,-0.027587890625,-0.033447265625,0.7586669921875,-6.0,-41.0,6.0,83.0,-965.0,150.0,179,187.744792441864,2.1800709361596127,
298,14.178417444229126,0.048004865646362305,20.83122172170432,21.01786050327439,102459.75,75.0,-948.0,154.0,-3.5,44.1875,12.0,-1.9375,-0.0625,-1.0625,4.9375,4.875,81.0,-0.6490478515625,-0.02801513671875,-0.03314208984375,0.75946044921875,-8.0,16.0,1.0,83.0,-965.0,152.0,184,186.99583395349123,-1.3762873174014825,
299,14.224422216415405,0.0460047721862793,21.736875382207526,21.02018594856845,102459.75,70.0,-945.0,156.0,-4.25,43.375,11.1875,1.0,-2.3125,-1.0,5.125,5.0,81.0625,-0.64971923828125,-0.028564453125,-0.03411865234375,0.75885009765625,-15.0,20.0,5.0,85.0,-965.0,151.0,193,188.19666716279298,4.119442511160503,
300,14.27342700958252,0.04900479316711426,20.406167139402843,21.018077844836693,102462.25,63.0,-953.0,162.0,-4.25,44.875,11.1875,-0.3125,-0.125,-0.5,5.125,5.0,81.0625,-0.6497802734375,-0.02886962890625,-0.0341796875,0.7587890625,-23.0,11.0,11.0,86.0,-965.0,150.0,184,187.3573337302344,-0.12996165316745545,
301,14.321431875228882,0.048004865646362305,20.83122172170432,21.0174515106011,102462.25,76.0,-954.0,153.0,-3.875,44.5625,12.0,-1.625,0.0,-0.75,5.125,5.0625,81.125,-0.64990234375,-0.0289306640625,-0.0341796875,0.75872802734375,-9.0,10.0,2.0,86.0,-965.0,150.0,179,185.68586698418753,-7.067708200005525,
302,14.367436408996582,0.046004533767700195,21.736988033603343,21.019755466667252,102462.25,56.0,-935.0,165.0,-4.25,44.1875,10.375,1.3125,-0.25,2.25,5.0625,4.9375,81.0625,-0.649658203125,-0.02783203125,-0.03375244140625,0.75897216796875,-27.0,29.0,14.0,84.0,-965.0,151.0,156,179.74869358735003,-31.465419976101362,
303,14.414441108703613,0.04700469970703125,21.274468430449602,21.02058607163374,102462.25,58.0,-945.0,168.0,-4.6875,43.75,12.0,-0.875,0.4375,1.9375,5.0625,4.8125,81.0,-0.6495361328125,-0.0267333984375,-0.0335693359375,0.7591552734375,-24.0,19.0,16.0,82.0,-965.0,151.0,203,184.39895486988001,-5.385968611175851,
304,14.464446067810059,0.05000495910644531,19.998016554144257,21.017050952026267,102462.25,92.0,-961.0,147.0,-4.25,43.375,11.5625,-1.4375,-1.375,-1.3125,5.0,4.75,81.125,-0.65008544921875,-0.0264892578125,-0.0333251953125,0.7586669921875,10.0,3.0,-2.0,81.0,-965.0,150.0,203,188.11916389590402,10.570585448520319,
305,14.512450933456421,0.048004865646362305,20.83122172170432,21.01643625866567,102462.25,69.0,-935.0,165.0,-3.875,44.1875,12.0,2.125,2.75,5.125,4.9375,4.625,81.0,-0.6495361328125,-0.02545166015625,-0.03277587890625,0.75921630859375,-5.0,26.0,4.0,79.0,-965.0,151.0,156,181.69533111672325,-18.30678862643709,
306,14.5584557056427,0.0460047721862793,21.736875382207526,21.018712848877076,102462.25,78.0,-1000.0,170.0,-3.1875,44.1875,11.5625,-1.0625,0.6875,2.1875,4.8125,4.5,81.0625,-0.64996337890625,-0.02484130859375,-0.031982421875,0.7589111328125,0.0,-34.0,19.0,77.0,-965.0,150.0,175,180.3562648933786,-20.466854026222837,
307,14.607460498809814,0.04900479316711426,20.406167139402843,21.016657893753244,102462.25,73.0,-973.0,164.0,-3.5,44.5625,11.5625,-0.1875,-1.875,-0.0625,4.6875,4.4375,81.0625,-0.6497802734375,-0.0244140625,-0.0313720703125,0.75909423828125,-2.0,-7.0,12.0,76.0,-965.0,151.0,179,180.0850119147029,-17.48052994496173,
308,14.653465032577515,0.046004533767700195,21.736988033603343,21.018919369258796,102466.75,68.0,-972.0,144.0,-3.5,44.1875,11.1875,1.4375,-0.3125,-0.6875,4.6875,4.4375,81.0625,-0.64996337890625,-0.02471923828125,-0.0313720703125,0.7589111328125,-8.0,-6.0,-6.0,76.0,-965.0,150.0,198,183.66800953176232,1.5922913093205917,
309,14.70346999168396,0.05000495910644531,19.998016554144257,21.01544738587322,102466.75,75.0,-942.0,154.0,-3.5,44.1875,12.75,-0.4375,1.0,-0.125,4.6875,4.5,81.0,-0.64935302734375,-0.02490234375,-0.0313720703125,0.75946044921875,-1.0,22.0,2.0,77.0,-965.0,152.0,179,182.7344076254099,-2.460204228186858,
310,14.753474950790405,0.05000495910644531,19.998016554144257,21.011998938147926,102466.75,64.0,-980.0,139.0,-3.875,44.5625,12.375,-0.25,-0.25,-0.75,4.6875,4.5,81.0625,-0.64959716796875,-0.02490234375,-0.03143310546875,0.75921630859375,-12.0,-14.0,-12.0,77.0,-965.0,151.0,198,185.7875261003279,10.243099378085372,
311,14.799479722976685,0.0460047721862793,21.736875382207526,21.014252245446315,102466.75,75.0,-936.0,167.0,-3.1875,43.75,11.5625,2.8125,-1.8125,0.8125,4.6875,4.5,80.9375,-0.649169921875,-0.025146484375,-0.03118896484375,0.75958251953125,-1.0,29.0,14.0,77.0,-965.0,152.0,212,191.03002088026233,30.985570647129883,
312,14.847484588623047,0.048004865646362305,20.83122172170432,21.013660471422305,102466.75,53.0,-987.0,142.0,-3.1875,43.75,12.0,-5.0,1.0625,-0.3125,4.625,4.4375,81.125,-0.6502685546875,-0.02471923828125,-0.0308837890625,0.7586669921875,-22.0,-21.0,-7.0,76.0,-966.0,149.0,179,188.62401670420988,14.764455226764891,
313,14.892489194869995,0.04500460624694824,22.219947765187033,21.01730583144011,102466.75,75.0,-959.0,157.0,-3.1875,44.1875,13.25,0.875,1.0,0.4375,4.625,4.4375,81.0625,-0.64990234375,-0.02471923828125,-0.03070068359375,0.759033203125,-4.0,8.0,11.0,75.0,-965.0,151.0,207,192.29921336336793,28.144099740068256,
314,14.936493396759033,0.044004201889038086,22.72510253728998,21.02233714829832,102466.75,75.0,-950.0,156.0,-3.1875,44.1875,13.25,-1.6875,-1.1875,-0.5625,4.625,4.4375,81.125,-0.65020751953125,-0.02459716796875,-0.03094482421875,0.75872802734375,0.0,15.0,6.0,76.0,-966.0,150.0,212,196.23937069069436,40.423375647364125,
315,14.984498023986816,0.0480046272277832,20.831325181528314,21.02172521867304,102466.75,67.0,-969.0,164.0,-3.5,44.5625,12.0,1.1875,0.8125,0.0,4.6875,4.4375,81.1875,-0.65057373046875,-0.0242919921875,-0.03125,0.7584228515625,-8.0,-3.0,15.0,75.0,-966.0,149.0,207,198.3914965525555,41.30502724989261,
316,15.031502962112427,0.04700493812561035,21.274360522031113,21.022515233273218,102463.0,67.0,-965.0,170.0,-5.0,43.75,12.75,-0.375,1.6875,-0.75,4.6875,4.375,81.0625,-0.64996337890625,-0.0240478515625,-0.0311279296875,0.75897216796875,-8.0,0.0,19.0,75.0,-966.0,150.0,175,193.71319724204443,13.138456567557636,
317,15.081507921218872,0.05000495910644531,19.998016554144257,21.019118357123826,102463.0,72.0,-946.0,167.0,-3.5,43.0625,12.75,1.1875,-2.25,-1.875,4.6875,4.4375,81.0,-0.64935302734375,-0.02471923828125,-0.03125,0.75946044921875,-4.0,19.0,15.0,76.0,-965.0,152.0,137,182.37055779363556,-34.85529303734796,
318,15.131512880325317,0.05000495910644531,19.998016554144257,21.01574393221963,102463.0,70.0,-972.0,156.0,-3.5,43.375,12.0,-0.625,-0.1875,-1.125,4.75,4.5625,81.0625,-0.6497802734375,-0.025390625,-0.03167724609375,0.759033203125,-7.0,-6.0,5.0,78.0,-965.0,151.0,151,176.09644623490846,-52.978191792672845,
319,15.178517580032349,0.04700469970703125,21.274468430449602,21.01654514796959,102463.0,64.0,-928.0,155.0,-3.5,43.75,12.0,0.875,-0.375,2.125,4.6875,4.5,81.0,-0.6492919921875,-0.02520751953125,-0.03125,0.75946044921875,-12.0,36.0,2.0,77.0,-965.0,152.0,,176.09644623490846,-52.978191792672845,
320,15.216521263122559,0.03800368309020996,26.31323910438585,21.029773787752937,102463.0,51.0,-981.0,145.0,-3.875,43.375,11.5625,-0.75,-0.0625,-1.8125,4.6875,4.5,81.0625,-0.64971923828125,-0.02520751953125,-0.03143310546875,0.75909423828125,-18.0,-7.0,-4.0,77.0,-965.0,151.0,132,167.2771569879268,-88.79536677145182,
321,15.262526035308838,0.0460047721862793,21.736875382207526,21.031905154978137,102463.0,73.0,-947.0,162.0,-5.0,43.375,10.375,3.6875,1.75,0.8125,4.6875,4.5,80.875,-0.6484375,-0.02496337890625,-0.03143310546875,0.76019287109375,-7.0,30.0,12.0,77.0,-965.0,154.0,151,164.02172559034142,-85.18887473808923,
322,15.30953073501587,0.04700469970703125,21.274468430449602,21.03264989458648,102463.0,76.0,-983.0,148.0,-3.5,44.1875,12.0,-2.3125,1.5625,0.1875,4.6875,4.4375,80.875,-0.648681640625,-0.02447509765625,-0.03143310546875,0.760009765625,0.0,-18.0,-11.0,76.0,-965.0,154.0,123,155.81738047227313,-103.05971603184281,
323,15.3565354347229,0.04700469970703125,21.274468430449602,21.03339007505949,102463.0,136.0,-970.0,161.0,-2.75,43.0625,12.0,9.375,-0.3125,-0.25,4.6875,4.4375,80.5625,-0.6466064453125,-0.02447509765625,-0.03155517578125,0.76177978515625,100.0,11.0,2.0,76.0,-964.0,159.0,137,152.0539043778185,-98.46096349751963,
324,15.403540134429932,0.04700469970703125,21.274468430449602,21.034125738134474,102463.75,242.0,-977.0,97.0,-3.5,44.875,11.1875,-4.0625,1.8125,-2.0,4.8125,4.5,80.625,-0.646728515625,-0.02447509765625,-0.03240966796875,0.76165771484375,182.0,-41.0,-89.0,77.0,-964.0,159.0,137,149.04312350225482,-91.5793233356519,
325,15.449544668197632,0.046004533767700195,21.736988033603343,21.036218670508884,102463.75,213.0,-1058.0,61.0,-3.1875,44.1875,10.75,-4.625,9.4375,-4.3125,5.125,4.625,80.75,-0.6478271484375,-0.0240478515625,-0.0343017578125,0.7606201171875,144.0,-99.0,-103.0,79.0,-964.0,156.0,198,158.83449880180385,-30.696457124758197,
326,15.497549533843994,0.048004865646362305,20.83122172170432,21.035583676507812,102463.75,131.0,-883.0,141.0,-2.75,43.75,12.0,7.0,15.8125,-3.375,5.9375,4.625,80.4375,-0.64599609375,-0.019775390625,-0.0396728515625,0.76202392578125,52.0,80.0,-19.0,79.0,-963.0,161.0,170,161.0675990414431,-15.25352445606334,
327,15.54755449295044,0.05000495910644531,19.998016554144257,21.03224659210991,102463.75,19.0,-932.0,197.0,-3.875,43.75,12.0,-16.625,15.375,-4.875,6.875,4.75,80.8125,-0.6485595703125,-0.01568603515625,-0.04583740234375,0.7596435546875,-48.0,48.0,53.0,81.0,-964.0,155.0,175,163.85407923315447,-1.0580041645228366,
328,15.596559524536133,0.04900503158569336,20.4060678596102,21.03027911277473,102463.75,40.0,-924.0,183.0,-4.6875,44.1875,11.5625,-10.75,3.75,-1.625,7.375,4.875,81.375,-0.65228271484375,-0.0145263671875,-0.04901123046875,0.7562255859375,-23.0,40.0,59.0,84.0,-966.0,145.0,175,166.08326338652358,8.25137328942532,
329,15.644564151763916,0.0480046272277832,20.831325181528314,21.02966863176597,102463.75,-16.0,-992.0,174.0,-4.6875,44.5625,12.375,-16.6875,8.125,0.875,7.625,4.6875,82.0625,-0.65667724609375,-0.01092529296875,-0.05047607421875,0.75238037109375,-97.0,-24.0,39.0,81.0,-967.0,134.0,193,171.46661070921886,29.02955036037527,
330,15.690568923950195,0.0460047721862793,21.736875382207526,21.03174216304456,102463.75,-38.0,-1047.0,188.0,-5.0,43.0625,12.375,-8.0625,6.6875,3.4375,7.75,4.5,82.5625,-0.659912109375,-0.00811767578125,-0.051025390625,0.74957275390625,-116.0,-78.0,62.0,77.0,-969.0,126.0,193,175.7732885673751,41.946384271111114,
331,15.733572959899902,0.04300403594970703,23.253631384028562,21.037815176731847,102463.75,-67.0,-1039.0,172.0,-5.0,43.0625,12.375,0.5625,1.9375,-5.625,7.9375,4.5625,82.625,-0.66064453125,-0.00750732421875,-0.05206298828125,0.74884033203125,-145.0,-70.0,48.0,78.0,-969.0,124.0,250,190.61863085390007,102.59873087700564,
332,15.783577919006348,0.05000495910644531,19.998016554144257,21.03452092444835,102462.0,0.0,-928.0,127.0,-3.875,43.375,14.0625,11.3125,-5.0625,-10.4375,8.25,5.0,82.25,-0.6580810546875,-0.0107421875,-0.05419921875,0.75091552734375,-85.0,39.0,-3.0,85.0,-968.0,131.0,226,197.69490468312006,110.38127293728432,
333,15.830582618713379,0.04700469970703125,21.274468430449602,21.035233384674022,102462.0,67.0,-859.0,111.0,-5.375,42.6875,13.25,3.5,-5.0,-2.3125,8.375,5.375,81.9375,-0.65582275390625,-0.01483154296875,-0.05517578125,0.75274658203125,-25.0,106.0,-24.0,92.0,-966.0,136.0,226,203.35592374649605,112.39205261942064,
334,15.878587484359741,0.048004865646362305,20.83122172170432,21.034616607364278,102462.0,86.0,-934.0,65.0,-5.0,43.75,12.75,-9.25,-2.75,2.0625,8.1875,5.4375,82.1875,-0.65771484375,-0.01593017578125,-0.0540771484375,0.75115966796875,-6.0,33.0,-66.0,93.0,-967.0,131.0,236,209.88473899719685,117.11428170901512,
335,15.92459225654602,0.0460047721862793,21.736875382207526,21.036645372335588,102462.0,84.0,-966.0,101.0,-5.0,43.375,14.0625,-0.5,-1.125,7.75,8.0,5.25,82.375,-0.65863037109375,-0.0150146484375,-0.05267333984375,0.75048828125,-5.0,1.0,-28.0,90.0,-967.0,129.0,198,207.50779119775748,83.35794174592694,
336,15.974597215652466,0.05000495910644531,19.998016554144257,21.03339417351791,102462.0,56.0,-1058.0,105.0,-5.0,43.375,13.5625,-3.875,4.9375,1.75,7.875,5.0,82.625,-0.6602783203125,-0.01275634765625,-0.0516357421875,0.7491455078125,-28.0,-89.0,-19.0,85.0,-968.0,125.0,198,205.606232958206,59.08087476609752,
337,16.02360200881958,0.04900479316711426,20.406167139402843,21.031475932472063,102462.0,136.0,-949.0,154.0,-5.0,43.0625,12.0,9.3125,0.375,-1.375,7.875,5.0,82.25,-0.65802001953125,-0.01312255859375,-0.052001953125,0.7510986328125,49.0,18.0,22.0,86.0,-968.0,131.0,221,208.68498636656483,59.82981113927334,
338,16.07060670852661,0.04700469970703125,21.274468430449602,21.032186657935366,102462.0,42.0,-949.0,167.0,-5.375,43.375,13.5625,-0.75,3.9375,4.4375,7.9375,4.8125,82.125,-0.65704345703125,-0.0107421875,-0.05224609375,0.75201416015625,-40.0,18.0,34.0,83.0,-967.0,133.0,236,214.14798909325185,71.10834472029131,
339,16.119611740112305,0.04900503158569336,20.4060678596102,21.03028320194753,102462.0,80.0,-948.0,161.0,-5.0,43.375,11.5625,-3.5625,-3.9375,1.375,7.8125,4.8125,82.25,-0.657958984375,-0.01116943359375,-0.05133056640625,0.751220703125,-2.0,19.0,29.0,82.0,-968.0,131.0,184,208.1183912746015,32.27859932552568,
340,16.16861653327942,0.04900479316711426,20.406167139402843,21.02839159430786,102461.0,61.0,-1013.0,117.0,-4.6875,43.75,12.0,-2.625,-1.6875,0.875,7.5625,4.6875,82.4375,-0.6591796875,-0.01092529296875,-0.0498046875,0.75030517578125,-18.0,-44.0,-10.0,80.0,-968.0,128.0,179,202.2947130196812,2.0550890932187187,
341,16.21562123298645,0.04700469970703125,21.274468430449602,21.029104904493234,102461.0,88.0,-958.0,129.0,-4.6875,42.6875,13.25,3.3125,-1.3125,-1.375,7.5,4.75,82.3125,-0.6583251953125,-0.01177978515625,-0.0494384765625,0.7509765625,7.0,10.0,0.0,81.0,-968.0,130.0,207,203.23577041574498,5.648170447334929,
342,16.26262593269348,0.04700469970703125,21.274468430449602,21.02981409124477,102461.0,82.0,-955.0,141.0,-4.6875,43.0625,13.25,4.25,0.125,2.3125,7.4375,4.6875,82.125,-0.6573486328125,-0.011474609375,-0.04925537109375,0.75189208984375,2.0,12.0,8.0,80.0,-968.0,132.0,221,206.788616332596,19.63551801712773,
343,16.30863070487976,0.0460047721862793,21.736875382207526,21.031808629854485,102461.0,71.0,-975.0,150.0,-4.6875,43.0625,12.375,5.9375,0.1875,2.125,7.4375,4.625,81.9375,-0.65576171875,-0.0108642578125,-0.04901123046875,0.7532958984375,-8.0,-7.0,13.0,79.0,-967.0,137.0,231,211.6308930660768,36.759607598069145,
344,16.359635591506958,0.051004886627197266,19.605964567849295,21.027363236537266,102461.0,90.0,-976.0,126.0,-4.25,43.375,12.75,0.375,-3.5,-3.4375,7.375,4.6875,81.75,-0.65484619140625,-0.0123291015625,-0.048583984375,0.75408935546875,9.0,-9.0,-13.0,80.0,-967.0,139.0,264,222.10471445286146,70.47756027831178,
345,16.409640550613403,0.05000495910644531,19.998016554144257,21.024226517082585,102461.0,95.0,-984.0,121.0,-4.25,42.6875,12.0,-1.0,0.5625,1.0,7.3125,4.75,81.8125,-0.655029296875,-0.01336669921875,-0.04840087890625,0.75390625,13.0,-17.0,-17.0,82.0,-967.0,138.0,226,222.88377156228916,59.4979676168412,
346,16.457645416259766,0.048004865646362305,20.83122172170432,21.023663546558133,102461.0,72.0,-970.0,131.0,-4.25,43.75,12.375,1.3125,-1.25,-2.1875,7.375,4.75,81.8125,-0.655029296875,-0.01324462890625,-0.04864501953125,0.75390625,-9.0,-3.0,-7.0,82.0,-967.0,138.0,207,219.70701724983135,34.36323940583519,
347,16.502650022506714,0.04500460624694824,22.219947765187033,21.026925949877928,102461.0,75.0,-948.0,137.0,-4.6875,43.75,10.75,0.0625,0.1875,-3.5625,7.5,4.9375,81.8125,-0.65496826171875,-0.01416015625,-0.0494384765625,0.75390625,-9.0,18.0,-1.0,84.0,-967.0,138.0,207,217.1656137998651,16.196621142964897,
348,16.550654888153076,0.048004865646362305,20.83122172170432,21.026358313416207,102464.5,68.0,-960.0,130.0,-3.875,43.0625,12.75,0.5,0.6875,-2.5,7.5625,5.0,81.8125,-0.655029296875,-0.01458740234375,-0.04998779296875,0.75384521484375,-18.0,15.0,-1.0,85.0,-967.0,138.0,165,206.7324910398921,-30.509641778179557,
349,16.603660106658936,0.053005218505859375,18.86606693055056,21.01946183902143,102464.5,82.0,-947.0,137.0,-5.375,44.1875,13.25,-1.1875,1.875,-0.375,7.625,5.0,81.8125,-0.655029296875,-0.0146484375,-0.05047607421875,0.7537841796875,-3.0,19.0,0.0,86.0,-966.0,138.0,170,199.38599283191368,-52.12761880192175,
350,16.65166473388672,0.0480046272277832,20.831325181528314,21.018919465015276,102464.5,76.0,-944.0,164.0,-4.6875,43.75,13.5625,1.3125,1.375,1.6875,7.6875,4.9375,81.75,-0.65484619140625,-0.01373291015625,-0.05072021484375,0.75390625,-9.0,23.0,29.0,85.0,-966.0,139.0,179,195.30879426553096,-58.6887848747333,
351,16.701669692993164,0.05000495910644531,19.998016554144257,21.015862871917214,102464.5,66.0,-962.0,142.0,-4.6875,43.0625,12.75,-5.8125,-1.0,-2.875,7.6875,5.0,82.0,-0.6561279296875,-0.013916015625,-0.0509033203125,0.7528076171875,-19.0,4.0,6.0,86.0,-967.0,135.0,184,193.0470354124248,-55.9971660969665,
352,16.75167465209961,0.05000495910644531,19.998016554144257,21.01282452712161,102464.5,72.0,-954.0,122.0,-5.75,43.375,12.375,-3.625,-0.4375,-1.0625,7.6875,5.0625,82.125,-0.65704345703125,-0.0145263671875,-0.05059814453125,0.75201416015625,-14.0,12.0,-10.0,86.0,-967.0,133.0,184,191.23762832993987,-52.034643435317136,
353,16.801679849624634,0.050005197525024414,19.9979212060819,21.009803969564768,102464.5,109.0,-930.0,122.0,-5.75,43.375,12.375,-1.4375,1.25,-0.125,7.6875,5.0625,82.1875,-0.657470703125,-0.0150146484375,-0.0506591796875,0.7515869140625,18.0,26.0,-1.0,87.0,-967.0,132.0,207,194.3901026639519,-29.0191280811001,
354,16.848684787750244,0.04700493812561035,21.274360522031113,21.010542036929436,102464.5,68.0,-997.0,146.0,-5.375,43.0625,13.25,-0.875,4.8125,3.9375,7.75,5.0,82.25,-0.657958984375,-0.0135498046875,-0.05096435546875,0.751220703125,-17.0,-29.0,15.0,85.0,-968.0,131.0,203,196.11208213116151,-15.888500065489573,
355,16.895689249038696,0.04700446128845215,21.27457633996277,21.011276590577577,102464.5,75.0,-976.0,155.0,-5.0,44.1875,11.5625,2.625,-0.0625,-2.0625,7.8125,4.9375,82.125,-0.6571044921875,-0.0130615234375,-0.0513916015625,0.751953125,-9.0,-8.0,22.0,85.0,-967.0,133.0,184,193.68966570492924,-23.017976689803326,
356,16.942693948745728,0.04700469970703125,21.274468430449602,21.012006772769144,102460.5,77.0,-954.0,153.0,-4.6875,43.375,12.75,0.9375,-0.5625,-1.6875,7.875,5.0625,82.0,-0.65643310546875,-0.01348876953125,-0.05194091796875,0.75244140625,-9.0,12.0,18.0,86.0,-967.0,135.0,189,192.75173256394342,-22.405187151397712,
357,16.988698482513428,0.046004533767700195,21.736988033603343,21.013969985250036,102460.5,60.0,-931.0,136.0,-4.6875,43.375,12.75,-2.125,0.25,0.5,7.8125,5.0,82.0,-0.65643310546875,-0.01336669921875,-0.0517578125,0.75244140625,-25.0,36.0,1.0,86.0,-967.0,135.0,193,192.80138605115474,-17.70828626965036,
358,17.03570318222046,0.04700469970703125,21.274468430449602,21.01468874931042,102460.5,79.0,-969.0,135.0,-4.6875,43.375,12.75,1.5625,0.6875,1.5625,7.8125,5.0,82.0625,-0.6568603515625,-0.01361083984375,-0.051513671875,0.75213623046875,-7.0,-1.0,1.0,86.0,-967.0,134.0,170,188.2411088409238,-33.57012372435165,
359,17.08170795440674,0.0460047721862793,21.736875382207526,21.016633755723777,102460.5,84.0,-950.0,135.0,-5.375,43.375,12.0,-3.5,-1.3125,-0.9375,7.6875,5.0,82.0625,-0.65679931640625,-0.013671875,-0.05084228515625,0.75225830078125,0.0,17.0,1.0,85.0,-967.0,134.0,175,185.59288707273905,-38.36891229137758,
360,17.131712913513184,0.05000495910644531,19.998016554144257,21.013660561404723,102460.5,73.0,-990.0,131.0,-4.6875,43.75,12.75,1.625,1.125,3.9375,7.5625,4.8125,82.0625,-0.65692138671875,-0.0126953125,-0.05010986328125,0.752197265625,-9.0,-22.0,-2.0,83.0,-967.0,133.0,193,187.07430965819123,-24.770027155590896,
361,17.178717613220215,0.04700469970703125,21.274468430449602,21.014374188337868,102460.5,78.0,-992.0,147.0,-4.25,42.6875,12.0,1.4375,0.0,-0.875,7.5625,4.8125,82.0,-0.65631103515625,-0.01263427734375,-0.0499267578125,0.75274658203125,-4.0,-27.0,22.0,82.0,-967.0,135.0,217,193.059447726553,5.650104452976233,
362,17.226722478866577,0.048004865646362305,20.83122172170432,21.013863806309928,102460.5,94.0,-960.0,129.0,-4.25,42.6875,12.375,1.4375,-1.625,-2.5,7.5625,4.875,81.9375,-0.6558837890625,-0.0135498046875,-0.050048828125,0.7530517578125,10.0,6.0,-7.0,84.0,-967.0,136.0,198,194.0475581812424,8.6367931558148,
363,17.27372717857361,0.04700469970703125,21.274468430449602,21.0145729550636,102460.5,66.0,-960.0,141.0,-4.6875,43.375,13.25,2.4375,2.375,2.4375,7.5625,4.875,81.8125,-0.6552734375,-0.01300048828125,-0.05010986328125,0.75360107421875,-16.0,6.0,3.0,83.0,-967.0,138.0,207,196.63804654499395,17.931687107467706,
364,17.323732137680054,0.05000495910644531,19.998016554144257,21.011638664643186,102461.75,83.0,-976.0,135.0,-4.6875,43.0625,11.1875,1.25,-1.8125,-2.125,7.625,4.875,81.75,-0.65484619140625,-0.0133056640625,-0.05029296875,0.75396728515625,-1.0,-9.0,-3.0,84.0,-967.0,139.0,165,190.31043723599518,-10.962577455928793,
365,17.36773657798767,0.04400444030761719,22.724979411382254,21.015979736968756,102461.75,58.0,-954.0,137.0,-5.0,43.0625,12.0,2.25,0.3125,1.6875,7.5625,4.8125,81.6875,-0.65411376953125,-0.01287841796875,-0.0499267578125,0.754638671875,-10.0,20.0,4.0,83.0,-966.0,141.0,226,197.44834978879618,23.671721195786894,
366,17.414741039276123,0.04700446128845215,21.27457633996277,21.016677720015842,102461.75,78.0,-981.0,126.0,-5.0,43.75,11.5625,-3.125,0.125,-0.625,7.5,4.875,81.6875,-0.654296875,-0.0133056640625,-0.0496826171875,0.75445556640625,6.0,6.0,-3.0,83.0,-966.0,140.0,160,189.95867983103696,-12.93053409886533,
367,17.464746236801147,0.050005197525024414,19.9979212060819,21.01376080842615,102461.75,77.0,-973.0,92.0,-4.6875,43.75,13.25,-2.625,-1.8125,-0.125,7.4375,4.8125,81.8125,-0.6551513671875,-0.01336669921875,-0.04925537109375,0.7537841796875,-8.0,2.0,-31.0,83.0,-967.0,138.0,207,193.36694386482958,3.2872118403692685,
368,17.51275110244751,0.048004865646362305,20.83122172170432,21.013260443618698,102461.75,81.0,-953.0,119.0,-4.25,42.6875,12.75,2.3125,2.1875,-0.3125,7.5625,4.9375,81.875,-0.65545654296875,-0.01385498046875,-0.04986572265625,0.75347900390625,-4.0,6.0,-12.0,84.0,-967.0,137.0,221,198.89355509186367,25.65498224029694,
369,17.562756061553955,0.05000495910644531,19.998016554144257,21.010369825027954,102461.75,81.0,-944.0,158.0,-4.6875,43.75,12.75,1.3125,4.6875,0.6875,7.75,4.875,81.8125,-0.655029296875,-0.0125732421875,-0.0509033203125,0.7537841796875,0.0,15.0,16.0,83.0,-967.0,139.0,207,200.51484407349096,27.00849857096439,
370,17.6127610206604,0.05000495910644531,19.998016554144257,21.007495620134556,102461.75,71.0,-960.0,171.0,-4.6875,42.25,12.75,-1.5,3.25,3.25,7.6875,4.6875,81.6875,-0.6544189453125,-0.01043701171875,-0.05108642578125,0.75433349609375,-9.0,6.0,31.0,81.0,-967.0,140.0,282,216.81187525879278,86.78845874218571,
371,17.65976572036743,0.04700469970703125,21.274468430449602,21.00820621714799,102461.0,59.0,-990.0,161.0,-4.6875,43.75,11.5625,-0.375,-1.1875,0.4375,7.6875,4.625,81.75,-0.65478515625,-0.0096435546875,-0.05096435546875,0.7540283203125,-20.0,-23.0,22.0,79.0,-967.0,139.0,297,232.84950020703425,137.6691561258994,
372,17.708770751953125,0.04900503158569336,20.4060678596102,21.006539934962543,102461.0,78.0,-969.0,143.0,-5.0,43.75,13.25,-4.3125,-1.0,0.0625,7.5625,4.625,81.8125,-0.655029296875,-0.010498046875,-0.0501708984375,0.75384521484375,-1.0,-1.0,5.0,79.0,-967.0,138.0,268,239.8796001656274,138.8266642636985,
373,17.75777554512024,0.04900479316711426,20.406167139402843,21.004883131462872,102461.0,89.0,-968.0,128.0,-4.25,44.1875,12.75,3.875,-0.875,-0.25,7.5625,4.6875,81.875,-0.65533447265625,-0.010986328125,-0.05010986328125,0.75360107421875,9.0,-1.0,-9.0,80.0,-967.0,138.0,273,246.50368013250193,138.0957480007211,
374,17.802780151367188,0.04500460624694824,22.219947765187033,21.007954758755936,102461.0,90.0,-949.0,140.0,-5.0,43.75,12.75,0.1875,-0.4375,0.5625,7.5625,4.625,81.6875,-0.65435791015625,-0.0107421875,-0.050048828125,0.75445556640625,10.0,17.0,0.0,80.0,-967.0,140.0,236,244.40294410600154,101.14094944511986,
375,17.84978461265564,0.04700446128845215,21.27457633996277,21.008656862678443,102461.0,60.0,-993.0,141.0,-4.25,42.6875,13.25,3.0625,0.875,1.5,7.625,4.625,81.75,-0.6546630859375,-0.01007080078125,-0.05035400390625,0.754150390625,-19.0,-25.0,1.0,79.0,-967.0,139.0,236,242.72235528480127,73.76199652155324,
376,17.899789810180664,0.050005197525024414,19.9979212060819,21.00583325208359,102461.0,81.0,-952.0,151.0,-4.25,44.1875,12.75,2.5,0.625,-4.0625,7.6875,4.75,81.5625,-0.65338134765625,-0.0111083984375,-0.0509033203125,0.7552490234375,0.0,14.0,8.0,81.0,-966.0,143.0,264,246.97788422784103,76.02994371586465,
377,17.94979476928711,0.05000495910644531,19.998016554144257,21.003025652697914,102461.0,71.0,-931.0,154.0,-4.25,43.375,11.1875,3.5,0.1875,1.9375,7.75,4.75,81.375,-0.65216064453125,-0.0111083984375,-0.05126953125,0.75628662109375,-10.0,34.0,8.0,82.0,-966.0,146.0,184,234.38230738227284,10.44664411935797,
378,17.999799728393555,0.05000495910644531,19.998016554144257,21.000233652807186,102461.0,59.0,-974.0,164.0,-5.0,44.1875,12.75,0.9375,0.5,-0.9375,7.75,4.75,81.375,-0.65228271484375,-0.01068115234375,-0.051513671875,0.75616455078125,-22.0,-8.0,18.0,81.0,-966.0,145.0,207,228.9058459058183,-13.546358157367887,
379,18.053805112838745,0.05400538444519043,18.51667218506501,20.992804432705366,102463.0,80.0,-948.0,172.0,-5.375,42.6875,11.1875,0.0,-0.4375,-1.5625,7.75,4.75,81.25,-0.65155029296875,-0.01092529296875,-0.0513916015625,0.75677490234375,-1.0,17.0,24.0,81.0,-966.0,147.0,226,228.32467672465464,-12.989350368228337,
380,18.10280990600586,0.04900479316711426,20.406167139402843,20.99121638977879,102463.0,84.0,-966.0,142.0,-4.6875,43.375,11.5625,-6.875,0.375,2.75,7.625,4.6875,81.375,-0.65240478515625,-0.01055908203125,-0.05047607421875,0.756103515625,4.0,0.0,-3.0,80.0,-966.0,145.0,245,231.65974137972373,3.2196970598282775,
381,18.14881443977356,0.046004533767700195,21.736988033603343,20.99310680950208,102463.0,164.0,-1007.0,168.0,-5.75,44.1875,12.0,2.75,2.5,0.875,7.625,4.625,81.5625,-0.6533203125,-0.00982666015625,-0.05072021484375,0.75531005859375,85.0,-40.0,25.0,79.0,-966.0,143.0,207,226.727793103779,-18.865382483449643,
