Index,Time,Difference,Hz,AveHz,0x6103 Pressure,0x6103 Acceleration-X,0x6103 Acceleration-Y,0x6103 Acceleration-Z,0x6103 Magnetic-X,0x6103 Magnetic-Y,0x6103 Magnetic-Z,0x6103 Angular-Vel-X,0x6103 Angular-Vel-Y,0x6103 Angular-Vel-Z,0x6103 Heading,0x6103 Roll,0x6103 Pitch,0x6103 Quaternion-X,0x6103 Quaternion-Y,0x6103 Quaternion-Z,0x6103 Quaternion-W,0x6103 Linear-Acceleration-X,0x6103 Linear-Acceleration-Y,0x6103 Linear-Acceleration-Z,0x6103 Gravity-X,0x6103 Gravity-Y,0x6103 Gravity-Z,0x6103 Range,0x6103 Smoothed Range,0x6103 Velocity,
0,0.0010001659393310547,0.0010001659393310547,999.8340882002384,0.0,102120.75,-888.0,27.0,462.0,17.0625,1.1875,-27.0625,-0.125,0.0,0.0625,80.875,-63.3125,-2.3125,0.34893798828125,0.3924560546875,-0.55230712890625,0.64739990234375,-11.0,9.0,22.0,-876.0,17.0,439.0,245,211.4,1679.7212681764017,
1,0.05000495910644531,0.04900479316711426,20.406167139402843,19.998016554144257,102120.75,-888.0,26.0,465.0,16.375,1.5625,-27.875,-0.1875,0.125,-0.0625,80.875,-63.3125,-2.3125,0.34893798828125,0.3924560546875,-0.55230712890625,0.64739990234375,-11.0,8.0,26.0,-876.0,17.0,439.0,231,215.32,1359.7754495784131,
2,0.09900975227355957,0.04900479316711426,20.406167139402843,20.20003034119395,102120.75,-888.0,24.0,461.0,17.5,2.0,-27.0625,0.125,0.0625,0.0,80.875,-63.3125,-2.3125,0.34893798828125,0.3924560546875,-0.55230712890625,0.64739990234375,-10.0,9.0,23.0,-876.0,17.0,439.0,245,221.256,1112.0465612906298,
3,0.14101409912109375,0.04200434684753418,23.807059865250682,21.274468430449602,102120.75,-887.0,26.0,457.0,17.0625,1.1875,-27.0625,0.125,0.0,0.0625,80.875,-63.3125,-2.3125,0.34893798828125,0.3924560546875,-0.55230712890625,0.64739990234375,-11.0,8.0,17.0,-876.0,17.0,439.0,245,226.00480000000002,912.2482422101244,
4,0.19201922416687012,0.05100512504577637,19.60587292164296,20.831247586563975,102120.75,-887.0,27.0,457.0,17.0625,2.0,-26.6875,0.25,-0.1875,0.0625,80.875,-63.3125,-2.3125,0.34893798828125,0.3924560546875,-0.55230712890625,0.64739990234375,-11.0,9.0,17.0,-876.0,17.0,439.0,226,226.00384000000003,729.7948294404987,
5,0.24102401733398438,0.04900479316711426,20.406167139402843,20.744820600477976,102120.75,-887.0,27.0,459.0,16.375,2.375,-26.25,0.125,-0.0625,0.0,80.875,-63.3125,-2.3125,0.34893798828125,0.3924560546875,-0.55230712890625,0.64739990234375,-11.0,9.0,19.0,-876.0,17.0,439.0,245,229.80307200000004,599.3414161910727,
6,0.2860286235809326,0.04500460624694824,22.219947765187033,20.976921557301004,102116.5,-887.0,26.0,455.0,16.375,0.875,-27.875,-0.375,0.25,0.0,80.875,-63.3125,-2.3125,0.34893798828125,0.3924560546875,-0.55230712890625,0.64739990234375,-11.0,7.0,19.0,-876.0,17.0,439.0,221,228.04245760000003,471.6489809523309,
7,0.33603358268737793,0.05000495910644531,19.998016554144257,20.831251281549168,102116.5,-890.0,26.0,454.0,16.6875,2.0,-27.875,-0.0625,0.1875,0.125,80.875,-63.3125,-2.3125,0.34893798828125,0.3924560546875,-0.55230712890625,0.64739990234375,-10.0,7.0,18.0,-876.0,17.0,439.0,236,229.63396608000005,383.684587347685,
8,0.38403844833374023,0.048004865646362305,20.83122172170432,20.831247586563975,102116.5,-890.0,28.0,455.0,17.0625,0.875,-26.25,-0.0625,-0.1875,-0.0625,80.875,-63.3125,-2.3125,0.34893798828125,0.3924560546875,-0.55230712890625,0.64739990234375,-13.0,10.0,16.0,-876.0,17.0,439.0,240,231.70717286400006,315.5851559166372,
9,0.4350435733795166,0.05100512504577637,19.60587292164296,20.687582924363117,102116.5,-890.0,26.0,454.0,16.375,2.375,-27.5,0.1875,-0.4375,-0.0625,80.875,-63.3125,-2.3125,0.34893798828125,0.3924560546875,-0.55230712890625,0.64739990234375,-14.0,8.0,15.0,-876.0,17.0,439.0,221,229.56573829120003,244.07118591244375,
10,0.4790480136871338,0.04400444030761719,22.724979411382254,20.87473429444381,102116.5,-891.0,26.0,455.0,16.375,2.375,-27.5,-0.1875,0.125,0.0,80.875,-63.3125,-2.3125,0.34893798828125,0.3924560546875,-0.55230712890625,0.64739990234375,-14.0,8.0,24.0,-876.0,17.0,439.0,212,226.05259063296003,179.28970708942506,
11,0.5300531387329102,0.05100512504577637,19.60587292164296,20.75263628528916,102116.5,-888.0,27.0,456.0,17.0625,2.0,-27.0625,0.0625,-0.1875,-0.0625,80.875,-63.3125,-2.3125,0.34893798828125,0.3924560546875,-0.55230712890625,0.64739990234375,-11.0,9.0,16.0,-876.0,17.0,439.0,226,226.04207250636802,143.3905222608727,
12,0.5770578384399414,0.04700469970703125,21.274468430449602,20.79514253275138,102116.5,-890.0,24.0,452.0,16.375,2.375,-27.0625,0.125,0.0625,0.0,80.875,-63.3125,-2.3125,0.34893798828125,0.3924560546875,-0.55230712890625,0.64739990234375,-13.0,6.0,13.0,-876.0,17.0,439.0,217,224.23365800509444,107.01780636539578,
13,0.6280627250671387,0.051004886627197266,19.605964567849295,20.69856955546968,102116.5,-887.0,26.0,457.0,17.875,3.0625,-27.5,0.0,0.25,0.0,80.875,-63.3125,-2.3125,0.34893798828125,0.3924560546875,-0.55230712890625,0.64739990234375,-11.0,8.0,17.0,-876.0,17.0,439.0,226,224.58692640407554,86.9994786349895,
14,0.676067590713501,0.048004865646362305,20.83122172170432,20.707988657206347,102116.5,-888.0,27.0,458.0,17.5,2.0,-27.0,0.375,-0.3125,0.0,80.875,-63.3125,-2.3125,0.34893798828125,0.3924560546875,-0.55230712890625,0.64739990234375,-12.0,9.0,18.0,-876.0,17.0,439.0,236,226.86954112326043,79.10951357210487,
15,0.7230722904205322,0.04700469970703125,21.274468430449602,20.744813760289635,102116.5,-887.0,25.0,463.0,16.375,2.375,-27.875,-0.3125,0.125,0.0,80.875,-63.3125,-2.3125,0.34893798828125,0.3924560546875,-0.55230712890625,0.64739990234375,-11.0,7.0,24.0,-876.0,17.0,439.0,231,227.69563289860838,66.80254353674269,
16,0.7730772495269775,0.05000495910644531,19.998016554144257,20.69650867334398,102116.5,-890.0,26.0,463.0,17.5,2.375,-26.6875,0.0625,-0.125,0.0,80.875,-63.3125,-2.3125,0.34893798828125,0.3924560546875,-0.55230712890625,0.64739990234375,-13.0,8.0,24.0,-876.0,17.0,439.0,231,228.35650631888672,56.08526634917817,
17,0.8220822811126709,0.04900503158569336,20.4060678596102,20.679195246722582,102116.5,-889.0,25.0,458.0,16.6875,2.0,-27.0625,0.0,0.0625,0.0,80.875,-63.3125,-2.3125,0.34893798828125,0.3924560546875,-0.55230712890625,0.64739990234375,-13.0,7.0,18.0,-876.0,17.0,439.0,226,227.8852050551094,42.94473196515053,
18,0.8700869083404541,0.0480046272277832,20.831325181528314,20.687588593111926,102116.5,-888.0,26.0,464.0,17.0625,1.5625,-27.0625,0.0,0.0,0.0625,80.875,-63.3125,-2.3125,0.34893798828125,0.3924560546875,-0.55230712890625,0.64739990234375,-12.0,8.0,25.0,-876.0,17.0,439.0,231,228.50816404408755,36.95119782695244,
19,0.9160916805267334,0.0460047721862793,21.736875382207526,20.740282227075134,102116.5,-888.0,26.0,465.0,16.375,2.0,-26.6875,0.3125,-0.3125,0.0,80.875,-63.3125,-2.3125,0.34893798828125,0.39251708984375,-0.55230712890625,0.64739990234375,-12.0,8.0,26.0,-876.0,17.0,439.0,259,234.60653123527007,56.072847795497424,
20,0.9650964736938477,0.04900479316711426,20.406167139402843,20.723316834275877,102116.5,-888.0,26.0,461.0,16.6875,2.0,-26.25,0.125,-0.4375,0.0,80.875,-63.3125,-2.3125,0.34893798828125,0.39251708984375,-0.55230712890625,0.64739990234375,-11.0,8.0,22.0,-876.0,17.0,439.0,207,229.08522498821608,22.324538615355404,
21,1.015101432800293,0.05000495910644531,19.998016554144257,20.68758778329048,102116.5,-888.0,25.0,465.0,16.0,1.5625,-26.6875,-0.0625,0.25,0.0,80.875,-63.3125,-2.3125,0.34893798828125,0.39251708984375,-0.55230712890625,0.64739990234375,-11.0,7.0,25.0,-876.0,17.0,439.0,198,222.86817999057288,-7.006082863861366,
22,1.0691068172454834,0.05400538444519043,18.51667218506501,20.57792509141625,102114.75,-886.0,26.0,464.0,17.875,1.1875,-27.5,0.1875,0.0,0.0,80.875,-63.3125,-2.3125,0.34893798828125,0.39251708984375,-0.55230712890625,0.64739990234375,-9.0,8.0,25.0,-876.0,17.0,439.0,231,224.49454399245832,0.4181035242115154,
23,1.1201121807098389,0.05100536346435547,19.605781276293403,20.533657606887562,102114.75,-888.0,26.0,461.0,16.6875,2.0,-27.5,0.1875,-0.375,0.0,80.875,-63.3125,-2.3125,0.34893798828125,0.39251708984375,-0.55230712890625,0.64739990234375,-11.0,8.0,21.0,-876.0,17.0,439.0,221,223.7956351939667,-2.4060477876915694,
24,1.165116310119629,0.04500412940979004,22.22018319462177,20.598801846260127,102114.75,-889.0,26.0,464.0,17.0625,2.6875,-25.875,0.0625,0.0,0.0,80.875,-63.3125,-2.3125,0.34893798828125,0.39251708984375,-0.55230712890625,0.64739990234375,-13.0,8.0,24.0,-876.0,17.0,439.0,226,224.23650815517334,0.03441736256017647,
25,1.2141215801239014,0.04900527000427246,20.405968580783583,20.59101856788407,102114.75,-888.0,26.0,458.0,16.6875,2.375,-27.875,-0.125,-0.0625,-0.125,80.875,-63.3125,-2.3125,0.34893798828125,0.39251708984375,-0.55230712890625,0.64739990234375,-11.0,8.0,18.0,-876.0,17.0,439.0,254,230.18920652413868,24.321649067645836,
26,1.2661266326904297,0.05200505256652832,19.228900859598856,20.535070765198135,102114.75,-887.0,26.0,464.0,16.375,3.0625,-26.25,0.0,0.0625,0.0625,80.875,-63.3125,-2.3125,0.34893798828125,0.39251708984375,-0.55230712890625,0.64739990234375,-11.0,8.0,25.0,-876.0,17.0,439.0,226,229.35136521931094,16.235165776794727,
27,1.314131498336792,0.048004865646362305,20.83122172170432,20.545889078963626,102114.75,-888.0,26.0,464.0,16.6875,3.5,-27.0625,0.0625,-0.0625,-0.0625,80.875,-63.3125,-2.3125,0.34893798828125,0.39251708984375,-0.55230712890625,0.64739990234375,-13.0,9.0,26.0,-876.0,17.0,439.0,217,226.88109217544877,2.696371523467347,
28,1.3621363639831543,0.048004865646362305,20.83122172170432,20.555944867459893,102114.75,-888.0,26.0,461.0,17.0625,2.0,-26.25,0.0625,-0.1875,0.0625,80.875,-63.3125,-2.3125,0.34893798828125,0.39251708984375,-0.55230712890625,0.64739990234375,-13.0,7.0,24.0,-876.0,17.0,439.0,207,222.90487374035902,-14.408800348282671,
29,1.4071404933929443,0.04500412940979004,22.22018319462177,20.609171675583173,102116.0,-891.0,27.0,461.0,16.375,2.375,-25.5,-0.0625,0.125,0.0,80.875,-63.3125,-2.3125,0.34893798828125,0.39251708984375,-0.55230712890625,0.64739990234375,-11.0,9.0,26.0,-876.0,17.0,439.0,193,216.92389899228723,-38.10671119553852,
30,1.4541451930999756,0.04700469970703125,21.274468430449602,20.630677144450345,102116.0,-887.0,28.0,465.0,16.6875,2.6875,-26.6875,-0.0625,-0.1875,0.0625,80.875,-63.3125,-2.3125,0.34893798828125,0.39251708984375,-0.55230712890625,0.64739990234375,-11.0,10.0,26.0,-876.0,17.0,439.0,250,223.5391191938298,-2.33831028879284,
31,1.503150224685669,0.04900503158569336,20.4060678596102,20.623354532965966,102116.0,-888.0,28.0,463.0,16.6875,2.6875,-26.6875,-0.25,0.0625,0.0625,80.875,-63.3125,-2.3125,0.34893798828125,0.39251708984375,-0.55230712890625,0.64739990234375,-13.0,10.0,24.0,-876.0,17.0,439.0,245,227.83129535506384,15.646639371274334,
32,1.5531554222106934,0.050005197525024414,19.9979212060819,20.603218159875205,102116.0,-888.0,26.0,462.0,17.0625,3.5,-26.6875,-0.3125,0.25,0.0625,80.875,-63.3125,-2.3125,0.34893798828125,0.39251708984375,-0.55230712890625,0.64739990234375,-11.0,7.0,23.0,-876.0,17.0,439.0,240,230.2650362840511,22.251263363800184,
33,1.5991597175598145,0.046004295349121094,21.737100686166794,20.63583745740874,102116.0,-889.0,26.0,461.0,17.0625,2.0,-27.5,0.0625,0.0,0.0,80.875,-63.3125,-2.3125,0.34893798828125,0.39251708984375,-0.55230712890625,0.64739990234375,-11.0,9.0,24.0,-876.0,17.0,439.0,221,228.41202902724086,9.745209628343808,
34,1.6471645832061768,0.048004865646362305,20.83122172170432,20.641531724668095,102116.0,-887.0,26.0,458.0,17.0625,3.0625,-27.875,0.125,-0.3125,-0.0625,80.875,-63.3125,-2.3125,0.34893798828125,0.39251708984375,-0.55230712890625,0.64739990234375,-12.0,7.0,22.0,-876.0,17.0,439.0,268,236.3296232217927,40.78279973651271,
35,1.6961696147918701,0.04900503158569336,20.4060678596102,20.634728799981897,102116.0,-888.0,27.0,459.0,17.5,2.6875,-26.25,0.125,-0.0625,0.0,80.875,-63.3125,-2.3125,0.34893798828125,0.39251708984375,-0.55230712890625,0.64739990234375,-13.0,7.0,23.0,-876.0,17.0,439.0,217,232.46369857743417,16.848575662626253,
36,1.7421741485595703,0.046004533767700195,21.736988033603343,20.663835489560444,102116.0,-888.0,26.0,460.0,16.6875,3.0625,-26.25,-0.375,0.125,0.0,80.875,-63.3125,-2.3125,0.34893798828125,0.39251708984375,-0.55230712890625,0.64739990234375,-12.0,8.0,20.0,-876.0,17.0,439.0,207,227.37095886194734,-8.661303920657737,
37,1.7911789417266846,0.04900479316711426,20.406167139402843,20.656785951453987,102111.5,-891.0,27.0,462.0,17.875,2.375,-27.0625,0.0625,-0.3125,-0.0625,80.875,-63.3125,-2.3125,0.34893798828125,0.39251708984375,-0.55230712890625,0.64739990234375,-15.0,9.0,23.0,-876.0,17.0,439.0,217,225.2967670895579,-15.394303933836818,
38,1.842184066772461,0.05100512504577637,19.60587292164296,20.62768899449699,102111.5,-889.0,27.0,458.0,16.375,2.375,-27.5,15.75,-0.3125,0.1875,80.875,-63.3125,-2.3125,0.34893798828125,0.39251708984375,-0.55230712890625,0.64739990234375,-12.0,9.0,18.0,-876.0,17.0,439.0,245,229.23741367164632,3.136520076436991,
39,1.8911890983581543,0.04900503158569336,20.4060678596102,20.621946284408075,102111.5,-888.0,26.0,456.0,17.5,2.0,-27.0625,-0.125,0.1875,0.0,80.875,-63.3125,-2.3125,0.34893798828125,0.39251708984375,-0.55230712890625,0.64739990234375,-11.0,8.0,18.0,-876.0,17.0,439.0,245,232.38993093731708,15.37531231152363,
40,1.9381937980651855,0.04700469970703125,21.274468430449602,20.637771124812318,102111.5,-970.0,-15.0,330.0,17.0625,3.0625,-28.1875,-1.1875,10.375,0.0625,80.9375,-63.5,-2.375,0.35003662109375,0.3934326171875,-0.55181884765625,0.646728515625,2.0,23.0,27.0,-877.0,18.0,436.0,193,224.51194474985365,-21.219743838922813,
41,1.9831981658935547,0.04500436782836914,22.220065479280787,20.673677852826643,102111.5,-737.0,-22.0,904.0,16.6875,2.6875,-27.5,8.5625,99.125,9.0,80.8125,-65.1875,-3.0,0.3681640625,0.4091796875,-0.54107666015625,0.63580322265625,133.0,-43.0,518.0,-900.0,24.0,410.0,662,312.00955579988295,371.8647342913204,
42,2.030202865600586,0.04700469970703125,21.274468430449602,20.68758778329048,102111.5,-695.0,-32.0,839.0,16.6875,3.0625,-27.0625,26.9375,343.75,26.125,80.4375,-74.75,-8.625,0.42987060546875,0.46630859375,-0.49786376953125,0.591552734375,-13.0,-2.0,-348.0,-960.0,43.0,191.0,207,291.0076446399064,208.1308882426507,
43,2.0762076377868652,0.0460047721862793,21.736875382207526,20.710837980461278,102111.5,-1142.0,65.0,-417.0,22.6875,3.5,-21.6875,40.25,0.6875,40.125,79.3125,-84.125,-3.75,0.46722412109375,0.49273681640625,-0.46856689453125,0.56512451171875,-166.0,0.0,-493.0,-974.0,74.0,81.0,189,270.60611571192516,77.81161221131453,
44,2.1242125034332275,0.048004865646362305,20.83122172170432,20.713558520574395,102111.5,-1134.0,363.0,13.0,26.375,2.6875,-17.875,61.1875,-9.375,103.625,77.625,-80.375,-55.25,0.48980712890625,0.4610595703125,-0.4638671875,0.57647705078125,-167.0,229.0,-79.0,-966.0,134.0,93.0,142,244.88489256954014,-44.911610677439306,
45,2.169217109680176,0.04500460624694824,22.219947765187033,20.744811480227856,102117.25,-1939.0,490.0,440.0,26.6875,0.5,-19.6875,41.3125,14.3125,47.1875,76.3125,-77.625,-63.8125,0.5098876953125,0.4393310546875,-0.45697021484375,0.58154296875,-940.0,313.0,348.0,-958.0,187.0,92.0,142,224.30791405563212,-127.37316609083388,
46,2.214221239089966,0.04500412940979004,22.22018319462177,20.77479846544412,102117.25,-1513.0,221.0,218.0,27.0625,-1.6875,-20.5,16.8125,15.375,-80.4375,78.6875,-79.625,-65.4375,0.51190185546875,0.447998046875,-0.4649658203125,0.56671142578125,-548.0,61.0,145.0,-964.0,160.0,73.0,250,229.4463312445057,-79.06321861923425,
47,2.261225938796997,0.04700469970703125,21.274468430449602,20.78518523673253,102117.25,-1034.0,277.0,232.0,30.6875,1.1875,-19.6875,-3.75,18.875,-85.5625,83.375,-83.9375,-4.8125,0.496826171875,0.470947265625,-0.48486328125,0.5443115234375,-59.0,194.0,171.0,-975.0,82.0,61.0,221,227.7570649956046,-70.43822319196153,
48,2.3072307109832764,0.0460047721862793,21.736875382207526,20.80416135738058,102117.25,-814.0,62.0,425.0,33.5,4.875,-19.0625,-17.9375,-9.625,-42.75,85.625,-86.0625,-1.9375,0.4833984375,0.48681640625,-0.49462890625,0.5335693359375,164.0,28.0,368.0,-978.0,40.0,55.0,85,199.20565199648368,-180.4742798231355,
49,2.3572356700897217,0.05000495910644531,19.998016554144257,20.787060293438945,102117.25,-696.0,-229.0,482.0,33.5,4.875,-19.0625,-37.375,13.25,12.875,84.875,-86.3125,-1.5,0.47662353515625,0.49383544921875,-0.49102783203125,0.5364990234375,282.0,-255.0,425.0,-978.0,25.0,56.0,306,220.56452159718697,-58.95241828797383,
50,2.403240203857422,0.046004533767700195,21.736988033603343,20.805244486067348,102117.25,-863.0,-197.0,527.0,36.1875,6.375,-19.875,-52.0625,1.0625,52.0,80.6875,-85.125,-3.375,0.474365234375,0.49517822265625,-0.47149658203125,0.55450439453125,113.0,-255.0,469.0,-977.0,57.0,58.0,207,217.8516172777496,-58.95600837596326,
51,2.44824481010437,0.04500460624694824,22.219947765187033,20.831250122337988,102117.25,-1045.0,-318.0,407.0,38.0,8.1875,-20.75,-60.875,-1.9375,48.5625,75.625,-83.375,-5.6875,0.4730224609375,0.49761962890625,-0.44580078125,0.5743408203125,-71.0,-416.0,351.0,-974.0,97.0,56.0,240,222.2812938221997,-27.479370413899513,
52,2.4962496757507324,0.048004865646362305,20.83122172170432,20.831249576171224,102117.25,-1231.0,-163.0,409.0,39.5,7.0625,-18.5,-71.375,-39.1875,14.0,71.25,-81.5,-54.9375,0.4578857421875,0.49798583984375,-0.4290771484375,0.5985107421875,-261.0,-281.0,321.0,-970.0,117.0,75.0,268,231.42503505775977,16.111563877648884,
53,2.547254800796509,0.05100512504577637,19.60587292164296,20.80671316565083,102110.75,-1179.0,-68.0,370.0,39.6875,5.875,-18.25,-67.3125,-42.875,-33.25,69.125,-80.75,-39.875,0.43011474609375,0.503662109375,-0.425048828125,0.61700439453125,-211.0,-168.0,250.0,-968.0,100.0,120.0,217,228.54002804620782,1.576634932811821,
54,2.595259428024292,0.0480046272277832,20.831325181528314,20.807168415185718,102110.75,-1097.0,28.0,342.0,40.0625,7.375,-19.875,-65.125,-59.375,-60.0,69.1875,-79.4375,-15.75,0.390869140625,0.50933837890625,-0.4354248046875,0.63104248046875,-133.0,-20.0,170.0,-964.0,48.0,172.0,137,210.23202243696628,-75.01469570802156,
55,2.6452643871307373,0.05000495910644531,19.998016554144257,20.791872550651675,102110.75,-1038.0,16.0,321.0,39.6875,8.25,-21.0625,-68.875,-47.125,-47.1875,69.125,-77.3125,1.5625,0.35150146484375,0.51666259765625,-0.44317626953125,0.64276123046875,-81.0,22.0,106.0,-956.0,-5.0,214.0,198,207.78561794957304,-69.79640405382182,
56,2.6962695121765137,0.05100512504577637,19.60587292164296,20.76943708598145,102110.75,-1078.0,28.0,363.0,39.0,10.5,-21.875,-72.9375,-46.9375,-35.4375,68.5,-75.3125,9.875,0.32171630859375,0.52142333984375,-0.44482421875,0.65325927734375,-130.0,70.0,119.0,-948.0,-42.0,244.0,278,221.82849435965844,-0.7725531729630575,
57,2.740273952484131,0.04400444030761719,22.724979411382254,20.800839984749697,102110.75,-1068.0,35.0,370.0,38.0625,13.0625,-23.6875,-78.5,-44.5,-28.5,67.0,-72.8125,16.75,0.28509521484375,0.52679443359375,-0.44219970703125,0.66754150390625,-131.0,118.0,93.0,-937.0,-83.0,276.0,297,236.86279548772677,67.71279418160434,
58,2.789278984069824,0.04900503158569336,20.4060678596102,20.793904206517364,102110.75,-983.0,-19.0,374.0,36.5625,15.1875,-24.875,-87.6875,-27.1875,-18.5625,64.9375,-70.9375,22.3125,0.2498779296875,0.53546142578125,-0.43341064453125,0.680419921875,-56.0,102.0,78.0,-927.0,-121.0,295.0,395,268.4902363901814,183.24857640154357,
59,2.8402838706970215,0.051004886627197266,19.605964567849295,20.772571575925287,102110.75,-931.0,-20.0,325.0,36.25,16.5625,-24.375,-84.25,-30.375,-20.0625,62.75,-69.25,27.125,0.21514892578125,0.54425048828125,-0.42230224609375,0.69219970703125,-14.0,137.0,17.0,-917.0,-158.0,308.0,475,309.79218911214514,308.55178545119645,
60,2.8872885704040527,0.04700469970703125,21.274468430449602,20.78074239444777,102110.75,-840.0,72.0,258.0,37.0,19.0625,-23.875,-81.5,-22.4375,-16.375,60.625,-67.625,31.375,0.18170166015625,0.55194091796875,-0.4110107421875,0.70245361328125,66.0,267.0,-59.0,-906.0,-194.0,318.0,615,370.83375128971613,506.56678585936936,
61,2.933293342590332,0.0460047721862793,21.736875382207526,20.795738058073706,102106.5,-705.0,37.0,167.0,35.5625,21.25,-24.1875,-72.0,-6.875,-10.0,59.0,-66.9375,34.75,0.15948486328125,0.560302734375,-0.400390625,0.70733642578125,196.0,255.0,-147.0,-902.0,-218.0,315.0,740,444.66700103177294,726.2342584287944,
62,2.9822981357574463,0.04900479316711426,20.406167139402843,20.789336671819093,102106.5,-670.0,17.0,171.0,35.5625,22.25,-22.5625,-43.375,-13.625,1.9375,57.1875,-66.4375,37.0,0.1402587890625,0.56640625,-0.3887939453125,0.7130126953125,228.0,253.0,-141.0,-899.0,-235.0,312.0,620,479.73360082541836,724.1023860229711,
63,3.0313031673431396,0.04900503158569336,20.4060678596102,20.7831406237133,102106.5,-677.0,-1.0,265.0,34.75,23.25,-22.0625,-24.25,-9.8125,15.25,55.5625,-66.3125,36.875,0.1318359375,0.56768798828125,-0.37890625,0.7188720703125,220.0,234.0,-48.0,-898.0,-236.0,314.0,1203,624.3868806603348,1169.6428377036746,
64,3.075307607650757,0.04400444030761719,22.724979411382254,20.810926308893674,102106.5,-661.0,50.0,332.0,35.5,23.6875,-22.375,-19.6875,-7.1875,19.5,54.1875,-66.5,35.875,0.12945556640625,0.56756591796875,-0.37066650390625,0.7236328125,247.0,274.0,19.0,-899.0,-228.0,315.0,1189,737.3095045282678,1448.9471306585476,
65,3.124312400817871,0.04900479316711426,20.406167139402843,20.80457766738836,102106.5,-577.0,-37.0,332.0,35.0625,24.0,-20.75,-19.5,-3.0,26.5,52.75,-66.9375,34.625,0.12908935546875,0.56781005859375,-0.3612060546875,0.72833251953125,325.0,180.0,17.0,-903.0,-214.0,315.0,1325,854.8476036226142,1638.8581236002237,
66,3.1703169345855713,0.046004533767700195,21.736988033603343,20.81810789324999,102106.5,-588.0,-118.0,295.0,36.5625,21.6875,-20.25,-29.25,10.75,51.375,50.0,-68.125,32.1875,0.13128662109375,0.570556640625,-0.3427734375,0.73468017578125,321.0,75.0,-12.0,-910.0,-194.0,308.0,884,860.6780828980914,1336.433910528423,
67,3.2203221321105957,0.050005197525024414,19.9979212060819,20.805372025340915,102106.5,-810.0,-129.0,251.0,37.25,22.0625,-20.0,-42.9375,23.1875,72.75,45.0625,-70.5625,27.9375,0.1353759765625,0.5784912109375,-0.30859375,0.7427978515625,114.0,23.0,-36.0,-924.0,-152.0,288.0,931,874.7424663184731,1125.3988147133223,
68,3.264326333999634,0.044004201889038086,22.72510253728998,20.831250629492864,102106.5,-959.0,-113.0,170.0,39.1875,20.25,-18.0,-50.625,29.375,70.5625,39.3125,-73.1875,22.1875,0.1378173828125,0.5892333984375,-0.26806640625,0.7496337890625,-20.0,-6.0,-91.0,-938.0,-107.0,262.0,955,890.7939730547786,973.2734790627663,
69,3.311331033706665,0.04700469970703125,21.274468430449602,20.837542153785275,102103.5,-1142.0,-71.0,174.0,39.875,20.25,-18.0,-48.5,25.25,67.0,35.25,-75.125,16.5625,0.14141845703125,0.5975341796875,-0.2392578125,0.75213623046875,-148.0,-32.0,-99.0,-947.0,-71.0,241.0,955,903.635178443823,833.256746981842,
70,3.3633360862731934,0.05200505256652832,19.228900859598856,20.81266879206377,102103.5,-1128.0,-85.0,140.0,41.375,17.0,-13.75,-24.3125,9.5,38.625,29.125,-76.875,7.375,0.1385498046875,0.60687255859375,-0.197021484375,0.7574462890625,-173.0,-56.0,-80.0,-955.0,-28.0,220.0,1044,931.7081427550584,774.5678471006341,
71,3.4093408584594727,0.0460047721862793,21.736875382207526,20.825139799040716,102103.5,-1157.0,-165.0,68.0,41.375,17.0,-13.75,-4.125,-19.125,5.125,28.125,-76.5625,4.8125,0.13873291015625,0.604248046875,-0.19091796875,0.76104736328125,-203.0,-146.0,-157.0,-953.0,-19.0,226.0,1044,954.1665142040467,717.2892419753049,
72,3.459345817565918,0.05000495910644531,19.998016554144257,20.813183704964484,102103.5,-1143.0,-150.0,146.0,42.875,15.875,-13.375,-3.6875,-24.75,-8.6875,27.6875,-75.3125,5.5,0.13153076171875,0.5972900390625,-0.18951416015625,0.76812744140625,-195.0,-126.0,-100.0,-948.0,-23.0,246.0,1072,977.7332113632374,668.0888335634437,
73,3.5073506832122803,0.048004865646362305,20.83122172170432,20.813430590049077,102103.5,-983.0,-126.0,213.0,42.5625,15.5,-14.5,-8.3125,-15.3125,-11.9375,27.4375,-74.375,7.4375,0.12249755859375,0.593017578125,-0.1890869140625,0.7730712890625,-39.0,-91.0,-47.0,-944.0,-34.0,261.0,1123,1006.78656909059,655.5144541664496,
74,3.5553553104400635,0.0480046272277832,20.831325181528314,20.813672203929645,102103.5,-948.0,-125.0,276.0,42.1875,15.5,-14.375,-10.75,-12.625,-8.125,27.0625,-73.6875,9.1875,0.11322021484375,0.5904541015625,-0.18701171875,0.77685546875,-6.0,-81.0,5.0,-941.0,-44.0,271.0,1086,1022.629255272472,590.4163928538978,
75,3.6013600826263428,0.0460047721862793,21.736875382207526,20.825465457290566,102103.5,-933.0,-173.0,262.0,41.5,15.5625,-16.375,-21.9375,-8.625,-8.0,26.4375,-73.1875,10.9375,0.103515625,0.58941650390625,-0.18353271484375,0.7799072265625,5.0,-119.0,-15.0,-938.0,-53.0,278.0,1221,1062.3034042179777,644.8115205878375,
76,3.652365207672119,0.05100512504577637,19.60587292164296,20.808433899314124,102103.5,-901.0,-175.0,237.0,41.5,16.0,-16.375,-32.375,-0.375,-8.9375,25.5,-72.8125,13.5,0.08984375,0.59051513671875,-0.17724609375,0.7822265625,35.0,-108.0,-43.0,-937.0,-67.0,280.0,1095,1068.8427233743823,541.4910285451771,
77,3.6983697414398193,0.046004533767700195,21.736988033603343,20.81998431287808,102100.0,-842.0,-223.0,179.0,41.5,18.5625,-15.1875,-30.0625,-10.8125,-17.75,24.5,-72.3125,16.9375,0.072021484375,0.59136962890625,-0.17059326171875,0.78485107421875,89.0,-148.0,-104.0,-934.0,-86.0,284.0,1212,1097.474178699506,557.6651431935138,
78,3.7453744411468506,0.04700469970703125,21.274468430449602,20.825688118947074,102100.0,-889.0,-210.0,200.0,41.5,18.5625,-15.1875,-31.5625,-15.3125,-15.625,23.75,-71.5,19.4375,0.053955078125,0.589111328125,-0.165283203125,0.78912353515625,39.0,-84.0,-82.0,-929.0,-107.0,294.0,1165,1110.9793429596048,503.5951526947128,
79,3.793379306793213,0.048004865646362305,20.83122172170432,20.82575814618016,102100.0,-856.0,-202.0,212.0,41.0625,19.6875,-16.375,-39.5625,-12.8125,-14.6875,22.8125,-70.625,22.5,0.0386962890625,0.58782958984375,-0.16009521484375,0.79205322265625,69.0,-77.0,-87.0,-925.0,-124.0,299.0,1282,1145.1834743676839,545.3788911877715,
80,3.840384006500244,0.04700469970703125,21.274468430449602,20.831250173053473,102100.0,-839.0,-189.0,162.0,40.375,19.5625,-15.5625,-44.125,-13.1875,-11.8125,21.875,-70.0,25.4375,0.01751708984375,0.587646484375,-0.15203857421875,0.79449462890625,81.0,-41.0,-151.0,-920.0,-147.0,302.0,1287,1173.5467794941471,556.9859608494477,
81,3.8923890590667725,0.05200505256652832,19.228900859598856,20.809841660437797,102100.0,-866.0,-166.0,115.0,39.25,21.75,-15.5625,-46.75,-4.625,0.0,20.125,-69.5625,27.875,-0.00079345703125,0.58843994140625,-0.13922119140625,0.79644775390625,52.0,-4.0,-192.0,-919.0,-161.0,301.0,1339,1206.6374235953178,572.8481116398943,
82,3.9373936653137207,0.04500460624694824,22.219947765187033,20.825959243642576,102100.0,-936.0,-146.0,120.0,38.875,21.75,-15.1875,-34.125,-11.75,2.5625,18.3125,-69.3125,29.0,-0.0123291015625,0.58782958984375,-0.1290283203125,0.79852294921875,-51.0,24.0,-143.0,-916.0,-169.0,304.0,1408,1246.9099388762543,637.2491264949364,
83,3.988398790359497,0.05100512504577637,19.60587292164296,20.810356326609643,102100.0,-1038.0,-142.0,231.0,38.0625,23.6875,-13.6875,-14.5625,-28.0,-1.8125,17.0625,-68.375,28.75,-0.02276611328125,0.58148193359375,-0.120849609375,0.80419921875,-126.0,30.0,-85.0,-910.0,-174.0,320.0,1446,1286.7279511010036,665.9326787301212,
84,4.038403749465942,0.05000495910644531,19.998016554144257,20.80029764510509,102100.0,-1132.0,-168.0,328.0,38.0625,23.25,-14.0625,-1.4375,-29.125,2.25,16.4375,-66.8125,27.25,-0.028564453125,0.57159423828125,-0.11773681640625,0.81292724609375,-199.0,-11.0,-81.0,-903.0,-177.0,338.0,1479,1325.182360880803,686.5485276553518,
85,4.087408542633057,0.04900479316711426,20.406167139402843,20.795572332303266,102100.25,-1121.0,-138.0,488.0,37.75,22.5625,-14.375,-1.0,-9.75,12.5625,15.6875,-66.375,25.875,-0.02911376953125,0.5650634765625,-0.11260986328125,0.81683349609375,-223.0,33.0,135.0,-898.0,-171.0,352.0,1544,1368.9458887046424,727.8479948009165,
86,4.137413740158081,0.050005197525024414,19.9979212060819,20.78593184077214,102100.25,-1103.0,-198.0,547.0,37.75,22.25,-15.1875,3.375,-12.875,1.625,14.875,-66.4375,24.5,-0.027587890625,0.5634765625,-0.10699462890625,0.8187255859375,-201.0,-42.0,195.0,-899.0,-162.0,356.0,1573,1409.7567109637139,745.5047174191984,
87,4.188418865203857,0.05100512504577637,19.60587292164296,20.77156148893565,102100.25,-991.0,-199.0,388.0,38.5,21.875,-16.375,-8.0625,-8.125,-19.9375,15.0,-65.6875,24.9375,-0.03173828125,0.55914306640625,-0.10858154296875,0.8212890625,-97.0,-29.0,23.0,-893.0,-170.0,365.0,1591,1446.0053687709712,738.5410896452006,
88,4.2324230670928955,0.044004201889038086,22.72510253728998,20.79187231640436,102100.25,-906.0,-186.0,280.0,37.375,23.375,-16.375,-16.0,-6.625,-32.3125,15.75,-64.875,28.0625,-0.04437255859375,0.5577392578125,-0.11358642578125,0.821044921875,-18.0,9.0,-85.0,-888.0,-195.0,366.0,1605,1477.8042950167771,735.3596436184926,
89,4.276427507400513,0.04400444030761719,22.724979411382254,20.81176398897965,102100.25,-908.0,-70.0,371.0,36.6875,23.375,-16.0,-16.0,-14.875,-38.6875,16.4375,-63.75,30.75,-0.0572509765625,0.55413818359375,-0.11907958984375,0.8218994140625,-42.0,139.0,-5.0,-879.0,-221.0,372.0,1671,1516.443436013422,763.9024516192436,
90,4.322432279586792,0.0460047721862793,21.736875382207526,20.821610190409658,102100.25,-803.0,-64.0,349.0,36.25,25.25,-16.6875,-23.375,-1.0,-35.8125,17.5,-62.4375,34.4375,-0.0740966796875,0.55145263671875,-0.1268310546875,0.8211669921875,65.0,192.0,-24.0,-869.0,-256.0,373.0,1666,1546.3547488107376,741.1576570540914,
91,4.372437238693237,0.05000495910644531,19.998016554144257,20.812191240781903,102100.25,-720.0,-118.0,349.0,35.5625,27.0,-14.0625,-24.25,3.6875,-15.5625,17.5,-61.875,37.625,-0.090576171875,0.552490234375,-0.126220703125,0.81890869140625,144.0,163.0,-15.0,-864.0,-282.0,365.0,1685,1574.0837990485902,703.8313267807279,
92,4.421442031860352,0.04900479316711426,20.406167139402843,20.807691096492874,102100.25,-732.0,-130.0,364.0,33.6875,29.0,-15.6875,-21.0625,9.125,7.25,16.8125,-62.125,39.1875,-0.09857177734375,0.55609130859375,-0.1209716796875,0.81634521484375,134.0,158.0,9.0,-866.0,-289.0,355.0,1699,1599.0670392388722,665.0274964259305,
93,4.464446544647217,0.043004512786865234,23.253373546076485,20.831249533383968,102105.0,-741.0,-174.0,320.0,34.0625,28.1875,-14.1875,-15.0625,15.6875,19.4375,15.5,-62.875,39.0625,-0.09954833984375,0.559814453125,-0.11138916015625,0.8150634765625,131.0,106.0,-25.0,-873.0,-281.0,346.0,1727,1624.6536313910979,651.0169141581069,
94,4.510450839996338,0.046004295349121094,21.737100686166794,20.84048875257807,102105.0,-825.0,-185.0,299.0,35.5625,29.0,-12.5625,-1.8125,11.4375,24.3125,13.875,-64.125,38.4375,-0.09783935546875,0.565673828125,-0.0989990234375,0.81280517578125,57.0,80.0,-35.0,-882.0,-265.0,334.0,1727,1645.1229051128785,609.8020640990962,
95,4.555455446243286,0.04500460624694824,22.219947765187033,20.85411681028358,102105.0,-888.0,-191.0,278.0,35.5625,29.0,-12.5625,9.4375,5.75,18.5625,13.25,-64.875,37.3125,-0.09210205078125,0.56842041015625,-0.094482421875,0.81207275390625,0.0,60.0,-51.0,-888.0,-252.0,330.0,1685,1653.0983240903029,523.2843298960473,
96,4.600460052490234,0.04500460624694824,22.219947765187033,20.867478231451024,102105.0,-963.0,-182.0,271.0,35.5625,27.0625,-13.0,19.5625,3.5625,10.75,12.9375,-65.375,35.5625,-0.08416748046875,0.569091796875,-0.09234619140625,0.812744140625,-71.0,55.0,-59.0,-891.0,-237.0,331.0,1774,1677.2786592722423,526.0846208543196,
97,4.645464658737183,0.04500460624694824,22.219947765187033,20.8805807654919,102105.0,-997.0,-220.0,227.0,36.25,27.5,-13.0,24.0625,3.125,1.75,13.1875,-65.625,34.5,-0.07781982421875,0.5693359375,-0.09405517578125,0.81298828125,-104.0,9.0,-105.0,-893.0,-229.0,333.0,1770,1695.8229274177938,503.27823059101115,
98,4.690469026565552,0.04500436782836914,22.220065479280787,20.893432926420456,102105.0,-1072.0,-317.0,282.0,36.25,27.5,-13.375,28.8125,4.875,4.375,13.875,-65.875,33.375,-0.06884765625,0.5699462890625,-0.0989990234375,0.81280517578125,-176.0,-96.0,-51.0,-895.0,-220.0,334.0,1746,1705.858341934235,447.220098006219,
99,4.737473726272583,0.04700469970703125,21.274468430449602,20.897213519301694,102105.0,-1131.0,-340.0,394.0,36.6875,26.6875,-14.1875,33.8125,-2.75,6.125,14.375,-66.0625,31.625,-0.058837890625,0.56915283203125,-0.1026611328125,0.81365966796875,-234.0,-131.0,56.0,-896.0,-208.0,338.0,1807,1726.0866735473883,443.8454788659138,
100,4.7814781665802,0.04400444030761719,22.724979411382254,20.914034638690364,102105.0,-1146.0,-383.0,259.0,36.6875,26.375,-15.25,26.125,-4.125,-18.875,15.6875,-65.6875,30.625,-0.05023193359375,0.56622314453125,-0.11260986328125,0.81494140625,-252.0,-177.0,-86.0,-893.0,-205.0,346.0,1741,1729.0693388379107,368.6325845563642,
101,4.8274827003479,0.046004533767700195,21.736988033603343,20.921877149911126,102101.5,-1062.0,-363.0,224.0,36.25,26.0,-15.25,19.4375,-1.25,-33.5,17.75,-64.9375,32.25,-0.05072021484375,0.564453125,-0.11151123046875,0.81402587890625,-194.0,-150.0,-133.0,-890.0,-214.0,349.0,1765,1736.2554710703287,326.14704171388365,
102,4.871487140655518,0.04400444030761719,22.724979411382254,20.93816468255619,102101.5,-1026.0,-232.0,345.0,36.0,25.25,-16.5,19.125,-9.75,-34.5,19.0625,-64.25,33.25,-0.0518798828125,0.56195068359375,-0.1368408203125,0.8140869140625,-143.0,0.0,-10.0,-883.0,-233.0,356.0,1713,1731.6043768562631,239.77842932009918,
103,4.915491580963135,0.04400444030761719,22.724979411382254,20.95416059685699,102101.5,-964.0,-207.0,367.0,36.0,25.25,-16.5,13.0,-2.75,-38.625,20.875,-63.25,34.75,-0.05462646484375,0.55902099609375,-0.14996337890625,0.81365966796875,-88.0,44.0,5.0,-876.0,-251.0,361.0,1802,1745.6835014850108,255.8123069197944,
104,4.959496021270752,0.04400444030761719,22.724979411382254,20.969872655196223,102101.5,-860.0,-216.0,362.0,36.0,27.0625,-16.5,3.1875,13.75,-38.125,22.875,-62.5,37.9375,-0.06195068359375,0.560546875,-0.16400146484375,0.80938720703125,9.0,62.0,5.0,-869.0,-278.0,356.0,1840,1764.5468011880087,290.38346501210754,
105,5.001500129699707,0.04200410842895508,23.807194995969986,20.993701345021112,102101.5,-766.0,-224.0,406.0,33.6875,28.1875,-16.0625,-2.0625,6.5,-36.5,24.5625,-61.625,41.0,-0.0714111328125,0.56195068359375,-0.1754150390625,0.80517578125,117.0,86.0,61.0,-862.0,-306.0,351.0,1826,1776.837440950407,290.8279034994138,
106,5.054505348205566,0.053005218505859375,18.86606693055056,20.971389423424345,102101.5,-739.0,-229.0,338.0,33.25,28.1875,-16.75,-2.4375,6.6875,-33.8125,26.25,-60.6875,43.875,-0.08026123046875,0.56353759765625,-0.186767578125,0.80072021484375,116.0,102.0,-6.0,-855.0,-332.0,345.0,1844,1790.2699527603256,283.3460561697983,
107,5.100509881973267,0.046004533767700195,21.736988033603343,20.978294812871578,102101.5,-755.0,-224.0,309.0,32.5625,30.5,-16.0625,4.3125,2.1875,-27.4375,27.625,-59.875,45.9375,-0.0872802734375,0.56414794921875,-0.19610595703125,0.7972412109375,89.0,134.0,-31.0,-848.0,-353.0,341.0,1793,1790.8159622082608,229.0505651030388,
108,5.145514488220215,0.04500460624694824,22.219947765187033,20.989154776893105,102101.5,-767.0,-244.0,293.0,31.875,31.5,-16.5,12.1875,-1.5,-21.875,28.75,-59.3125,46.375,-0.0872802734375,0.5626220703125,-0.20440673828125,0.7962646484375,76.0,116.0,-50.0,-844.0,-361.0,344.0,1765,1785.6527697666088,160.29527881140797,
109,5.192519187927246,0.04700469970703125,21.274468430449602,20.99173754685935,102100.25,-769.0,-303.0,285.0,31.0625,33.375,-15.6875,17.125,-4.0625,-19.375,29.5,-58.875,46.3125,-0.0869140625,0.56036376953125,-0.2099609375,0.79644775390625,61.0,49.0,-54.0,-839.0,-366.0,349.0,1770,1782.5222158132872,114.91604879917436,
110,5.237523794174194,0.04500460624694824,22.219947765187033,21.00229122058696,102100.25,-875.0,-373.0,369.0,29.6875,31.875,-16.5,19.4375,-15.6875,-24.6875,31.0,-57.625,45.875,-0.08697509765625,0.55352783203125,-0.2216796875,0.79803466796875,-69.0,-4.0,16.0,-828.0,-376.0,364.0,1793,1784.6177726506298,101.24547173228638,
111,5.288528919219971,0.05100512504577637,19.60587292164296,20.988823488625624,102100.25,-953.0,-387.0,404.0,28.875,32.6875,-16.5,16.125,-17.375,-29.125,32.5625,-56.0,45.5625,-0.09033203125,0.5445556640625,-0.23382568359375,0.8004150390625,-119.0,-1.0,16.0,-813.0,-391.0,383.0,1788,1785.294218120504,83.64883816998373,
112,5.338533878326416,0.05000495910644531,19.998016554144257,20.97954280194828,102100.25,-861.0,-478.0,317.0,28.1875,31.5,-18.75,10.6875,-0.375,-40.0,34.6875,-54.5,46.5625,-0.09527587890625,0.53985595703125,-0.24932861328125,0.79833984375,-54.0,-69.0,-66.0,-798.0,-413.0,391.0,1807,1789.6353744964033,84.28197394985979,
113,5.384538412094116,0.046004533767700195,21.736988033603343,20.98601427862279,102100.25,-849.0,-466.0,333.0,27.0625,33.375,-19.5,7.9375,-5.5,-53.125,36.75,-52.9375,47.875,-0.102783203125,0.5361328125,-0.2645263671875,0.79498291015625,-80.0,10.0,-50.0,-782.0,-438.0,396.0,1770,1785.7082995971227,50.353023141342675,
114,5.428542613983154,0.044004201889038086,22.72510253728998,21.000111467551566,102100.25,-900.0,-212.0,479.0,26.0,34.875,-19.1875,20.0,-26.25,-58.4375,38.375,-51.25,48.375,-0.1097412109375,0.5294189453125,-0.27691650390625,0.79437255859375,-139.0,212.0,60.0,-765.0,-458.0,407.0,1770,1782.5666396776983,26.003509751831153,
115,5.4705469608306885,0.04200434684753418,23.807059865250682,21.02166398047656,102100.25,-754.0,-441.0,432.0,23.0625,35.5625,-20.0,33.3125,-11.5,-57.375,41.625,-48.4375,48.4375,-0.1163330078125,0.516357421875,-0.3018798828125,0.79290771484375,-20.0,45.0,1.0,-734.0,-486.0,431.0,1774,1780.8533117421587,12.644947655425351,
116,5.516551733016968,0.0460047721862793,21.736875382207526,21.02762841971217,102100.25,-835.0,-354.0,630.0,21.5625,36.0,-21.0625,41.75,-30.5,-55.5625,44.875,-45.6875,47.4375,-0.11798095703125,0.50018310546875,-0.32757568359375,0.7928466796875,-133.0,150.0,167.0,-701.0,-504.0,462.0,1713,1767.2826493937268,-48.88080114003538,
117,5.561556100845337,0.04500436782836914,22.220065479280787,21.037277675256465,102100.25,-705.0,-408.0,563.0,21.5625,36.0,-21.0625,36.3125,-12.6875,-54.9375,47.5,-43.5625,46.875,-0.1192626953125,0.4881591796875,-0.34832763671875,0.79132080078125,-29.0,109.0,78.0,-676.0,-518.0,485.0,1704,1754.6261195149816,-95.35042544126686,
118,5.606560468673706,0.04500436782836914,22.220065479280787,21.04677201990728,102097.75,-621.0,-478.0,618.0,19.0,36.6875,-23.375,26.1875,-1.625,-35.9375,50.1875,-41.8125,46.5625,-0.11907958984375,0.4793701171875,-0.368896484375,0.78741455078125,33.0,52.0,116.0,-654.0,-530.0,502.0,1746,1752.9008956119853,-83.94725797121302,
119,5.650565147399902,0.04400467872619629,22.724856286808727,21.05984036919876,102097.75,-620.0,-412.0,607.0,16.375,35.6875,-24.5625,18.5625,15.5625,-24.0625,51.8125,-41.25,46.625,-0.11602783203125,0.47808837890625,-0.38275146484375,0.781982421875,23.0,149.0,113.0,-646.0,-536.0,506.0,1727,1747.7207164895885,-90.70157159624924,
120,5.700570106506348,0.05000495910644531,19.998016554144257,21.050526132998165,102097.75,-634.0,-314.0,588.0,16.0625,37.1875,-25.0,27.125,22.3125,-7.0,53.1875,-41.3125,46.5,-0.10980224609375,0.47943115234375,-0.38983154296875,0.778564453125,11.0,217.0,79.0,-649.0,-532.0,506.0,1718,1741.776573191671,-96.3354724913911,
121,5.749574899673462,0.04900479316711426,20.406167139402843,21.045034130587986,102097.75,-634.0,-338.0,595.0,16.375,36.0625,-25.25,47.1875,18.4375,5.75,54.125,-42.125,44.75,-0.09130859375,0.478271484375,-0.39739990234375,0.77777099609375,23.0,173.0,79.0,-658.0,-512.0,515.0,1699,1733.2212585533368,-111.98461408111865,
122,5.79457950592041,0.04500460624694824,22.219947765187033,21.054159301007214,102097.75,-694.0,-277.0,627.0,16.75,36.75,-25.6875,65.875,29.1875,16.6875,54.6875,-43.5,41.375,-0.06219482421875,0.4737548828125,-0.4036865234375,0.78021240234375,-19.0,192.0,94.0,-675.0,-470.0,532.0,1699,1726.3770068426695,-120.00347436545891,
123,5.8425843715667725,0.048004865646362305,20.83122172170432,21.052327562197583,102097.75,-704.0,-263.0,665.0,17.5625,33.0,-29.1875,85.5625,28.3125,21.4375,56.0,-45.1875,37.75,-0.02703857421875,0.47003173828125,-0.41461181640625,0.77874755859375,-8.0,159.0,120.0,-695.0,-423.0,545.0,1634,1707.9016054741357,-172.97581595344843,
124,5.891589164733887,0.04900479316711426,20.406167139402843,21.046952958336647,102097.75,-696.0,-231.0,706.0,18.6875,32.375,-28.5,102.625,21.1875,23.3125,57.25,-46.75,32.875,0.012939453125,0.46099853515625,-0.42510986328125,0.77880859375,18.0,133.0,143.0,-714.0,-364.0,563.0,1549,1676.1212843793087,-268.083561563745,
125,5.937593698501587,0.046004533767700195,21.736988033603343,21.05229935681605,102097.75,-714.0,-133.0,738.0,19.6875,29.375,-30.75,111.5,25.375,23.6875,58.4375,-48.0625,28.375,0.04864501953125,0.4515380859375,-0.435302734375,0.77734375,15.0,178.0,162.0,-729.0,-311.0,576.0,1610,1662.8970275034471,-271.95795194377587,
126,5.982598066329956,0.04500436782836914,22.220065479280787,21.06108393093088,102098.5,-692.0,-108.0,778.0,21.1875,25.75,-33.5,116.1875,26.3125,26.0,60.125,-49.625,22.125,0.0953369140625,0.43701171875,-0.4482421875,0.77392578125,54.0,130.0,190.0,-747.0,-239.0,588.0,1559,1642.1176220027578,-309.91031172418957,
127,6.027602672576904,0.04500460624694824,22.219947765187033,21.069736493713727,102098.5,-724.0,-96.0,884.0,22.375,22.0,-35.0,115.9375,20.1875,29.375,61.3125,-50.75,16.6875,0.133056640625,0.42364501953125,-0.45703125,0.7706298828125,35.0,81.0,290.0,-759.0,-178.0,593.0,1498,1613.2940976022064,-376.0196906971208,
128,6.0726072788238525,0.04500460624694824,22.219947765187033,21.078260806747107,102098.5,-720.0,-110.0,829.0,24.1875,18.25,-36.1875,103.0,21.6875,19.375,62.75,-52.0,10.25,0.17681884765625,0.4075927734375,-0.46649169921875,0.76483154296875,53.0,-2.0,236.0,-773.0,-107.0,593.0,1385,1567.6352780817651,-503.7230695105581,
129,6.120612144470215,0.048004865646362305,20.83122172170432,21.076323242691917,102098.5,-768.0,-177.0,789.0,25.25,15.6875,-37.6875,88.625,16.8125,0.0625,64.4375,-53.0,5.3125,0.2117919921875,0.39483642578125,-0.476806640625,0.7562255859375,15.0,-122.0,202.0,-783.0,-55.0,586.0,1348,1523.7082224654123,-585.9893026336231,
130,6.165616273880005,0.04500412940979004,22.22018319462177,21.084672516960154,102098.5,-766.0,-176.0,731.0,25.6875,10.875,-38.75,75.875,13.5625,-22.6875,66.5625,-53.5625,3.0,0.2327880859375,0.38653564453125,-0.48992919921875,0.74591064453125,23.0,-146.0,149.0,-789.0,-30.0,581.0,1278,1474.56657797233,-687.1787107311518,
131,6.20862078666687,0.043004512786865234,23.253373546076485,21.0996941996079,102098.5,-697.0,-170.0,674.0,25.6875,10.875,-38.75,68.8125,13.0,-42.5625,69.375,-54.0,2.1875,0.24810791015625,0.380615234375,-0.50701904296875,0.73248291015625,95.0,-148.0,98.0,-793.0,-22.0,575.0,1259,1431.453262377864,-750.2489750505221,
132,6.25462532043457,0.046004533767700195,21.736988033603343,21.10438167554834,102098.5,-629.0,-221.0,690.0,25.6875,9.375,-37.6875,65.375,-0.4375,-49.3125,73.25,-54.1875,2.1875,0.2615966796875,0.3731689453125,-0.531005859375,0.71435546875,166.0,-199.0,117.0,-795.0,-22.0,573.0,1146,1374.3626099022913,-848.3949459788435,
133,6.304630517959595,0.050005197525024414,19.9979212060819,21.095605780724416,102098.5,-653.0,-250.0,720.0,25.6875,8.5625,-40.375,59.625,-3.25,-39.6875,76.75,-54.0,2.125,0.27252197265625,0.36346435546875,-0.55340576171875,0.6981201171875,140.0,-229.0,144.0,-793.0,-21.0,575.0,1142,1327.8900879218331,-864.5867233456972,
134,6.351635217666626,0.04700469970703125,21.274468430449602,21.09692943752318,102101.5,-682.0,-167.0,773.0,26.0625,8.0,-40.375,46.8125,-11.4375,-31.25,79.4375,-53.4375,1.8125,0.27960205078125,0.35284423828125,-0.5709228515625,0.68658447265625,105.0,-149.0,190.0,-788.0,-18.0,583.0,1081,1278.5120703374666,-901.7675939279159,
135,6.398639917373657,0.04700469970703125,21.274468430449602,21.098233647035915,102101.5,-701.0,-191.0,761.0,25.25,6.5,-41.0625,34.0625,-10.125,-17.9375,81.5625,-52.5625,1.875,0.28070068359375,0.34295654296875,-0.5855712890625,0.67877197265625,77.0,-171.0,165.0,-778.0,-20.0,595.0,1030,1228.8096562699734,-932.8925629415367,
136,6.4436445236206055,0.04500460624694824,22.219947765187033,21.10606808017759,102101.5,-719.0,-170.0,711.0,23.75,5.6875,-40.25,28.375,-14.0625,-13.875,82.4375,-52.125,1.4375,0.28326416015625,0.33648681640625,-0.59197998046875,0.67535400390625,54.0,-155.0,110.0,-774.0,-15.0,601.0,978,1178.6477250159787,-969.2331488061624,
137,6.489648818969727,0.046004295349121094,21.737100686166794,21.1105413900886,102101.5,-664.0,-164.0,713.0,23.375,4.1875,-41.0625,25.25,-19.5,-14.0,83.8125,-51.1875,1.0625,0.2838134765625,0.3258056640625,-0.60247802734375,0.6710205078125,100.0,-153.0,98.0,-764.0,-11.0,614.0,955,1133.918180012783,-969.8446437211085,
138,6.532653331756592,0.043004512786865234,23.253373546076485,21.124647672508992,102101.5,-685.0,-84.0,664.0,23.375,3.5625,-42.5625,13.8125,7.0625,4.1875,84.1875,-51.1875,0.4375,0.28778076171875,0.3226318359375,-0.604736328125,0.6688232421875,78.0,-79.0,50.0,-764.0,-5.0,614.0,941,1095.3345440102264,-955.3156551235459,
139,6.579658031463623,0.04700469970703125,21.274468430449602,21.125717983413175,102101.5,-758.0,-94.0,637.0,23.0625,2.5,-43.6875,0.1875,-16.125,14.4375,83.8125,-50.75,-0.375,0.2880859375,0.31732177734375,-0.60430908203125,0.67230224609375,2.0,-96.0,19.0,-761.0,2.0,618.0,889,1054.0676352081812,-939.8388338051076,
140,6.624662399291992,0.04500436782836914,22.220065479280787,21.133152387503163,102101.5,-782.0,-87.0,558.0,23.0625,2.5,-43.0,2.25,-21.6875,14.8125,83.3125,-50.125,-0.875,0.285888671875,0.312744140625,-0.602294921875,0.676513671875,-30.0,-97.0,-70.0,-750.0,12.0,631.0,870,1017.2541081665449,-915.4708633217723,
141,6.671667098999023,0.04700469970703125,21.274468430449602,21.134148018439767,102101.5,-787.0,-109.0,608.0,21.1875,2.5,-43.375,11.3125,-38.75,4.125,82.9375,-48.625,-1.75,0.28143310546875,0.30108642578125,-0.60357666015625,0.6824951171875,-51.0,-129.0,-39.0,-736.0,20.0,647.0,857,985.203286533236,-868.7495292589783,
142,6.716671466827393,0.04500436782836914,22.220065479280787,21.141424096937918,102099.5,-725.0,-87.0,576.0,21.1875,2.5,-43.375,11.4375,-28.6875,2.25,83.0625,-47.3125,-2.25,0.27740478515625,0.29071044921875,-0.60736083984375,0.685302734375,-4.0,-114.0,-87.0,-721.0,26.0,663.0,792,946.5626292265888,-866.7192105104128,
143,6.770677089691162,0.05400562286376953,18.51659043952745,21.120487376030336,102099.5,-750.0,-84.0,659.0,19.375,1.875,-43.375,-0.75,-0.875,22.875,82.25,-46.4375,-3.5625,0.27728271484375,0.28155517578125,-0.60430908203125,0.69183349609375,-39.0,-126.0,-14.0,-710.0,42.0,674.0,792,915.650103381271,-807.8542845141416,
144,6.815681457519531,0.04500436782836914,22.220065479280787,21.127747958515467,102099.5,-704.0,222.0,552.0,19.375,1.875,-43.375,2.5,29.5625,32.0,81.0625,-47.0,-4.75,0.283203125,0.28350830078125,-0.59552001953125,0.6962890625,13.0,167.0,-112.0,-717.0,55.0,665.0,811,894.7200827050169,-739.2967135931267,
145,6.859685897827148,0.04400444030761719,22.724979411382254,21.137994094733948,102099.5,-614.0,197.0,370.0,19.375,1.0,-44.875,31.25,59.9375,46.5625,79.3125,-49.375,-8.1875,0.306884765625,0.289794921875,-0.5787353515625,0.69775390625,130.0,106.0,-261.0,-744.0,91.0,631.0,764,868.5760661640136,-710.261818399529,
146,6.903690338134766,0.04400444030761719,22.724979411382254,21.14810961226372,102099.5,-652.0,154.0,365.0,21.1875,1.0625,-43.0,60.3125,4.9375,58.125,77.4375,-50.625,-14.0625,0.33636474609375,0.28192138671875,-0.5623779296875,0.7008056640625,96.0,83.0,-199.0,-758.0,151.0,602.0,886,872.060852931211,-552.3711132120995,
147,6.953695297241211,0.05000495910644531,19.998016554144257,21.139839138237818,102099.5,-661.0,332.0,536.0,22.6875,-1.1875,-42.5,81.125,-9.875,50.0625,76.5625,-49.4375,-20.5,0.3621826171875,0.25390625,-0.5557861328125,0.703857421875,83.0,108.0,-60.0,-745.0,223.0,596.0,801,857.8486823449689,-498.739935100478,
148,6.99970006942749,0.0460047721862793,21.736875382207526,21.143763094424276,102099.5,-676.0,382.0,648.0,23.375,-3.75,-41.75,88.25,-1.25,50.3125,76.0625,-48.1875,-25.625,0.38458251953125,0.22998046875,-0.5516357421875,0.7034912109375,56.0,100.0,61.0,-733.0,281.0,586.0,601,806.4789458759752,-622.3154600890538,
149,7.044704437255859,0.04500436782836914,22.220065479280787,21.15063894121871,102099.5,-697.0,548.0,731.0,22.375,-7.75,-41.25,88.4375,9.8125,57.9375,75.3125,-47.375,-32.75,0.41778564453125,0.202392578125,-0.5413818359375,0.70098876953125,12.0,174.0,176.0,-721.0,359.0,557.0,620,769.1831567007803,-663.5953435860997,
150,7.09070897102356,0.046004533767700195,21.736988033603343,21.154443175284793,102098.25,-778.0,539.0,749.0,22.0,-12.25,-39.75,68.0625,-1.625,48.125,74.4375,-46.125,-38.5625,0.444580078125,0.17822265625,-0.53125,0.6988525390625,-110.0,201.0,258.0,-707.0,423.0,530.0,670,749.3465253606242,-617.1139984824744,
151,7.136713743209839,0.0460047721862793,21.736875382207526,21.158197656963274,102098.25,-848.0,543.0,690.0,23.0625,-16.0,-40.1875,49.5625,20.0,40.8125,73.25,-45.375,-43.1875,0.462158203125,0.16558837890625,-0.521240234375,0.69757080078125,-149.0,80.0,182.0,-699.0,463.0,507.0,1118,823.0772202884995,-173.15621328782265,
152,7.184718370437622,0.0480046272277832,20.831325181528314,21.15601366163802,102098.25,-910.0,633.0,622.0,21.1875,-18.5,-38.5625,35.875,8.625,21.0625,72.75,-45.0625,-45.6875,0.47845458984375,0.15618896484375,-0.5126953125,0.695556640625,-216.0,137.0,138.0,-694.0,495.0,483.0,658,790.0617762307996,-276.0760608659585,
153,7.231723070144653,0.04700469970703125,21.274468430449602,21.156783593061398,102098.25,-886.0,594.0,566.0,22.25,-20.0,-36.6875,26.0625,0.0,-7.4375,72.9375,-45.125,-46.875,0.4854736328125,0.1531982421875,-0.51165771484375,0.692138671875,-168.0,134.0,71.0,-696.0,505.0,470.0,707,773.4494209846397,-291.54465414073553,
154,7.278727769851685,0.04700469970703125,21.274468430449602,21.157543580330657,102098.25,-795.0,586.0,506.0,20.75,-22.25,-36.25,23.25,-9.1875,-27.3125,74.25,-45.5625,-47.125,0.48919677734375,0.15106201171875,-0.5185546875,0.684814453125,-125.0,125.0,63.0,-700.0,503.0,466.0,630,744.7595367877118,-355.30813043674794,
155,7.321732044219971,0.04300427436828613,23.25350246433779,21.169854218082506,102098.25,-721.0,471.0,491.0,20.75,-22.25,-36.25,20.5625,-14.25,-46.1875,76.8125,-46.5625,-46.4375,0.49029541015625,0.1510009765625,-0.53363037109375,0.67236328125,-9.0,-16.0,26.0,-712.0,488.0,464.0,625,720.8076294301694,-395.63965170223884,
156,7.365736484527588,0.04400444030761719,22.724979411382254,21.17914485913153,102098.25,-638.0,442.0,503.0,20.875,-22.25,-35.1875,17.5625,-12.5,-46.875,79.875,-47.75,-45.0625,0.4893798828125,0.15283203125,-0.55126953125,0.658203125,77.0,-45.0,36.0,-723.0,470.0,464.0,611,698.8461035441356,-416.32676608232225,
157,7.411741256713867,0.0460047721862793,21.736875382207526,21.182606699577214,102098.25,-613.0,339.0,459.0,21.5625,-22.25,-35.0625,15.625,-15.3125,-37.1875,82.4375,-48.6875,-43.75,0.48797607421875,0.15386962890625,-0.56646728515625,0.64599609375,123.0,-108.0,-7.0,-735.0,450.0,466.0,550,669.0768828353085,-462.47938102049915,
158,7.4627461433410645,0.051004886627197266,19.605964567849295,21.171830980875836,102097.25,-538.0,304.0,508.0,21.5625,-22.25,-35.0625,14.0625,-7.125,-13.75,83.75,-49.0,-43.1875,0.4876708984375,0.1524658203125,-0.5740966796875,0.63983154296875,202.0,-135.0,40.0,-740.0,440.0,468.0,503,635.8615062682469,-500.22740403271575,
159,7.506750822067261,0.04400467872619629,22.724856286808727,21.180934837026264,102097.25,-786.0,395.0,427.0,22.6875,-21.875,-36.6875,15.25,4.0,3.4375,84.0625,-49.0,-43.9375,0.49163818359375,0.1494140625,-0.57452392578125,0.6370849609375,-45.0,-50.0,-35.0,-740.0,445.0,462.0,550,618.6892050145975,-478.2295388467661,
160,7.554755210876465,0.0480043888092041,20.831428642379993,21.178714006464492,102097.25,-836.0,444.0,485.0,22.6875,-23.0,-35.5625,17.8125,-4.6875,-3.0,84.5625,-48.9375,-44.75,0.49615478515625,0.144287109375,-0.57623291015625,0.6331787109375,-96.0,-9.0,28.0,-739.0,453.0,456.0,554,605.7513640116781,-436.4863734051677,
161,7.601759910583496,0.04700469970703125,21.274468430449602,21.17930609408604,102097.25,-826.0,452.0,468.0,22.0,-23.25,-35.1875,11.8125,-1.625,-9.25,85.4375,-49.0625,-44.9375,0.49859619140625,0.14111328125,-0.58026123046875,0.62835693359375,-85.0,-1.0,14.0,-741.0,453.0,454.0,578,600.2010912093425,-372.80491942686854,
162,7.649764776229858,0.048004865646362305,20.83122172170432,21.17712174672131,102097.25,-833.0,461.0,452.0,21.5,-23.6875,-35.6875,12.5,1.5,-14.1875,86.125,-49.4375,-45.0625,0.5008544921875,0.14105224609375,-0.58319091796875,0.62384033203125,-88.0,9.0,3.0,-745.0,451.0,449.0,545,589.160872967474,-344.2401823519684,
163,7.692769289016724,0.043004512786865234,23.253373546076485,21.188728515844307,102097.25,-811.0,466.0,474.0,22.25,-23.25,-35.1875,4.625,4.8125,-19.5,87.125,-50.1875,-44.9375,0.5028076171875,0.1436767578125,-0.5875244140625,0.6175537109375,-57.0,22.0,30.0,-753.0,443.0,444.0,536,578.5286983739793,-324.838931367502,
164,7.739773988723755,0.04700469970703125,21.274468430449602,21.189249226002616,102097.25,-808.0,466.0,414.0,23.375,-23.25,-34.875,0.3125,6.6875,-23.0625,87.875,-50.9375,-44.4375,0.5030517578125,0.1484375,-0.59100341796875,0.61285400390625,-47.0,33.0,-26.0,-761.0,432.0,441.0,550,572.8229586991835,-284.1484608107632,
165,7.786778688430786,0.04700469970703125,21.274468430449602,21.189763649652573,102097.25,-816.0,408.0,444.0,23.25,-23.25,-35.6875,0.8125,3.0625,-26.75,89.0,-51.9375,-43.5625,0.502685546875,0.1549072265625,-0.596435546875,0.6063232421875,-44.0,-8.0,6.0,-772.0,416.0,437.0,554,569.0583669593468,-243.33670627314777,
166,7.828782796859741,0.04200410842895508,23.807194995969986,21.203807067758405,102097.25,-767.0,374.0,455.0,24.0625,-23.6875,-34.875,-2.125,5.5625,-26.75,90.0625,-52.75,-42.6875,0.50213623046875,0.1605224609375,-0.6011962890625,0.60052490234375,13.0,-27.0,19.0,-781.0,402.0,435.0,522,559.6466935674774,-239.48247375424157,
167,7.8757874965667725,0.04700469970703125,21.274468430449602,21.204228792714247,102093.0,-638.0,295.0,368.0,26.0,-22.6875,-34.875,-5.5625,9.625,-14.5,90.8125,-53.6875,-41.75,0.501220703125,0.16815185546875,-0.6046142578125,0.5958251953125,152.0,-91.0,-63.0,-790.0,386.0,432.0,517,551.117354853982,-227.87740844196745,
168,7.91979193687439,0.04400444030761719,22.724979411382254,21.212678481841856,102093.0,-798.0,355.0,612.0,26.0,-21.5,-35.25,-5.0,11.375,-3.8125,90.75,-54.1875,-41.75,0.5020751953125,0.17242431640625,-0.60333251953125,0.59515380859375,-3.0,-26.0,184.0,-795.0,381.0,427.0,522,545.2938838831856,-208.76957833640003,
169,7.963796138763428,0.044004201889038086,22.72510253728998,21.221035427740286,102093.0,-782.0,392.0,447.0,25.5625,-21.5,-34.0625,-5.8125,15.1875,0.9375,90.375,-54.75,-42.0625,0.50408935546875,0.1785888671875,-0.59942626953125,0.59552001953125,18.0,14.0,27.0,-801.0,378.0,419.0,554,547.0351071065485,-159.10176741087352,
170,8.008800745010376,0.04500460624694824,22.219947765187033,21.226648709660182,102093.0,-802.0,450.0,425.0,26.25,-21.875,-34.5,-9.75,20.8125,0.875,89.8125,-55.375,-42.5625,0.50665283203125,0.18505859375,-0.59466552734375,0.59619140625,4.0,74.0,15.0,-807.0,376.0,410.0,625,562.6280856852388,-57.98638002426284,
171,8.055805444717407,0.04700469970703125,21.274468430449602,21.226927732239762,102093.0,-830.0,444.0,429.0,26.25,-21.875,-34.5,-11.6875,18.75,-3.0,89.3125,-55.875,-42.9375,0.508544921875,0.19049072265625,-0.59033203125,0.59716796875,-18.0,69.0,27.0,-811.0,375.0,402.0,679,585.9024685481911,52.64092067180483,
172,8.099809885025024,0.04400444030761719,22.724979411382254,21.235066309148145,102093.0,-816.0,396.0,408.0,26.0,-20.75,-34.875,-11.8125,20.25,-6.0,88.8125,-56.5,-43.1875,0.50982666015625,0.19805908203125,-0.58599853515625,0.59783935546875,1.0,26.0,14.0,-818.0,370.0,393.0,740,616.7219748385529,182.1872657209314,
173,8.143814325332642,0.04400444030761719,22.724979411382254,21.243116933775827,102093.0,-840.0,386.0,413.0,27.0625,-21.1875,-33.6875,-7.75,23.125,-3.0625,88.5625,-57.25,-43.5625,0.51220703125,0.20501708984375,-0.58233642578125,0.5970458984375,-15.0,21.0,29.0,-825.0,365.0,383.0,848,662.9775798708424,355.9813469807069,
174,8.194819211959839,0.051004886627197266,19.605964567849295,21.232927231153266,102093.0,-832.0,364.0,406.0,27.75,-19.25,-32.5625,-7.1875,17.75,-3.125,88.125,-58.0,-44.0625,0.51446533203125,0.212646484375,-0.577880859375,0.5968017578125,0.0,3.0,34.0,-832.0,361.0,372.0,806,691.582063896674,396.9487776429784,
175,8.242824077606201,0.048004865646362305,20.83122172170432,21.230587763656573,102103.75,-832.0,339.0,355.0,28.0625,-19.25,-33.375,-4.625,34.6875,1.4375,87.5,-58.9375,-45.25,0.51922607421875,0.22149658203125,-0.571044921875,0.59600830078125,7.0,-19.0,0.0,-840.0,358.0,355.0,792,711.6656511173392,401.2321537865556,
176,8.293829441070557,0.05100536346435547,19.605781276293403,21.220595534369,102103.75,-806.0,364.0,344.0,29.25,-19.6875,-34.0625,-4.6875,16.625,5.5625,86.8125,-59.75,-46.8125,0.52490234375,0.22857666015625,-0.5634765625,0.59552001953125,40.0,4.0,6.0,-847.0,360.0,337.0,754,720.1325208938713,354.18564241595413,
177,8.34183406829834,0.0480046272277832,20.831325181528314,21.218355406115915,102103.75,-816.0,368.0,367.0,30.375,-18.1875,-32.5625,-5.1875,-4.4375,7.5,86.0,-59.4375,-47.0625,0.52386474609375,0.22930908203125,-0.5595703125,0.59991455078125,27.0,4.0,27.0,-844.0,364.0,339.0,721,720.3060167150971,284.0713435066817,
178,8.38783860206604,0.046004533767700195,21.736988033603343,21.221199935363103,102103.75,-830.0,369.0,372.0,30.75,-19.25,-32.1875,-5.3125,-1.9375,8.125,85.5,-59.0625,-46.9375,0.522216796875,0.22821044921875,-0.5579833984375,0.60321044921875,8.0,3.0,21.0,-841.0,368.0,343.0,,720.3060167150971,284.0713435066817,
179,8.432843208312988,0.04500460624694824,22.219947765187033,21.22653007748847,102103.75,-836.0,386.0,370.0,29.25,-19.25,-33.375,-4.625,2.0625,7.1875,84.875,-58.8125,-47.1875,0.52191162109375,0.2281494140625,-0.55487060546875,0.6063232421875,0.0,7.0,21.0,-839.0,372.0,344.0,693,714.8448133720777,202.98754420195417,
180,8.48084807395935,0.048004865646362305,20.83122172170432,21.22429247998138,102103.75,-848.0,407.0,368.0,30.75,-18.5,-32.5625,-4.125,0.5625,5.3125,84.1875,-58.625,-47.3125,0.52105712890625,0.22918701171875,-0.5521240234375,0.610107421875,-5.0,23.0,27.0,-838.0,374.0,345.0,721,716.0758506976623,167.51883765695254,
181,8.524852514266968,0.04400444030761719,22.724979411382254,21.23203887657683,102103.75,-856.0,404.0,377.0,28.875,-19.25,-32.875,-3.25,1.0625,3.5625,84.0,-58.5625,-47.375,0.5206298828125,0.229248046875,-0.55029296875,0.61114501953125,-19.0,27.0,31.0,-836.0,376.0,345.0,684,709.6606805581298,104.85814825728394,
182,8.571857213973999,0.04700469970703125,21.274468430449602,21.232271543592706,102103.75,-855.0,414.0,386.0,29.5625,-19.6875,-33.375,-5.375,-2.375,3.1875,83.625,-58.3125,-47.375,0.51953125,0.228759765625,-0.5489501953125,0.61346435546875,-20.0,36.0,38.0,-834.0,378.0,348.0,693,706.3285444465039,69.70863370327784,
183,8.616861581802368,0.04500436782836914,22.220065479280787,21.237430619341843,102100.75,-858.0,413.0,380.0,29.5625,-19.6875,-33.375,-6.8125,-3.4375,4.4375,83.3125,-58.0,-47.0625,0.51763916015625,0.22802734375,-0.54833984375,0.615966796875,-32.0,37.0,31.0,-832.0,380.0,353.0,651,695.2628355572032,6.590751743638023,
184,8.6638662815094,0.04700469970703125,21.274468430449602,21.237631563254453,102100.75,-823.0,369.0,366.0,29.5625,-19.6875,-32.1875,-3.3125,-0.4375,4.625,82.9375,-57.8125,-47.0625,0.5167236328125,0.22784423828125,-0.5467529296875,0.6181640625,7.0,-12.0,11.0,-830.0,382.0,355.0,634,683.0102684457627,-46.860769045950775,
185,8.706870555877686,0.04300427436828613,23.25350246433779,21.24758819058282,102100.75,-776.0,290.0,372.0,30.75,-19.25,-31.375,-3.375,-3.5,-0.9375,82.75,-57.6875,-46.8125,0.51531982421875,0.2276611328125,-0.54638671875,0.6197509765625,52.0,-91.0,14.0,-828.0,382.0,358.0,679,682.2082147566102,-41.21872672420814,
186,8.753875255584717,0.04700469970703125,21.274468430449602,21.24773252638452,102100.75,-797.0,357.0,428.0,28.5,-20.0,-33.0,-6.5,-23.6875,-10.375,83.125,-57.5,-45.625,0.51080322265625,0.22711181640625,-0.5501708984375,0.62030029296875,31.0,-13.0,87.0,-827.0,376.0,367.0,764,698.5665718052883,36.62808874185825,
187,8.801880121231079,0.048004865646362305,20.83122172170432,21.245460904305652,102100.75,-816.0,382.0,457.0,29.5625,-19.25,-32.875,-6.9375,-31.8125,-12.125,83.8125,-56.9375,-43.125,0.50091552734375,0.22381591796875,-0.55865478515625,0.6219482421875,5.0,25.0,71.0,-821.0,365.0,390.0,768,712.4532574442306,87.15779649836975,
188,8.852885246276855,0.05100512504577637,19.60587292164296,21.23601456136176,102100.75,-834.0,360.0,512.0,28.875,-18.875,-33.0,-0.0625,-47.8125,-21.5,85.25,-55.9375,-39.875,0.48828125,0.21673583984375,-0.572509765625,0.6219482421875,-5.0,-5.0,133.0,-812.0,352.0,420.0,787,727.3626059553845,128.18839564952978,
189,8.900890111923218,0.048004865646362305,20.83122172170432,21.233831406010104,102100.75,-829.0,318.0,559.0,28.5,-18.5625,-34.5,4.3125,-20.6875,-27.1875,86.9375,-55.75,-37.375,0.48028564453125,0.214599609375,-0.58282470703125,0.6171875,-18.0,-19.0,123.0,-810.0,338.0,435.0,787,739.2900847643076,152.24350764954508,
190,8.948894739151001,0.0480046272277832,20.831325181528314,21.231672238668622,102100.75,-812.0,371.0,547.0,27.5,-17.75,-36.0625,6.25,-8.75,-26.625,88.125,-56.0,-36.0,0.4771728515625,0.21539306640625,-0.5926513671875,0.612060546875,0.0,48.0,104.0,-813.0,322.0,443.0,825,756.4320678114461,193.2128507418737,
191,8.99389934539795,0.04500460624694824,22.219947765187033,21.236617474236244,102098.75,-792.0,313.0,456.0,26.0,-17.5,-36.0625,5.9375,-12.1875,-31.25,89.8125,-56.375,-34.0625,0.47320556640625,0.21722412109375,-0.60302734375,0.6043701171875,26.0,15.0,28.0,-817.0,304.0,448.0,825,770.1456542491569,215.51331545736113,
192,9.038903713226318,0.04500436782836914,22.220065479280787,21.241514025539733,102098.75,-799.0,387.0,554.0,28.0625,-17.0625,-36.0625,14.6875,-15.4375,-26.875,91.3125,-56.5625,-32.625,0.4700927734375,0.2159423828125,-0.61419677734375,0.595947265625,22.0,93.0,112.0,-818.0,289.0,455.0,881,792.3165233993257,270.93828521575216,
193,9.084908246994019,0.046004533767700195,21.736988033603343,21.24402302729465,102098.75,-828.0,345.0,573.0,27.75,-16.0,-37.5625,17.9375,-13.375,-20.0,92.4375,-56.5625,-31.75,0.46893310546875,0.2137451171875,-0.62060546875,0.5909423828125,-17.0,59.0,89.0,-818.0,283.0,459.0,886,811.0532187194606,298.2064925652106,
194,9.13291311264038,0.048004865646362305,20.83122172170432,21.2418532408345,102098.75,-825.0,284.0,503.0,27.75,-17.0625,-36.75,24.0,-7.75,-15.0625,94.0,-56.5,-31.3125,0.46978759765625,0.20947265625,-0.62725830078125,0.58477783203125,-7.0,3.0,41.0,-818.0,281.0,461.0,,811.0532187194606,298.2064925652106,
195,9.175917625427246,0.043004512786865234,23.253373546076485,21.251280575976235,102098.75,-775.0,305.0,539.0,27.5,-16.25,-36.375,20.875,1.0625,-11.0625,95.1875,-56.75,-31.625,0.47393798828125,0.2054443359375,-0.63238525390625,0.5772705078125,44.0,23.0,82.0,-819.0,281.0,458.0,894,827.6425749755686,315.71689363461246,
196,9.22492241859436,0.04900479316711426,20.406167139402843,21.24679114969352,102098.75,-829.0,327.0,509.0,26.6875,-17.75,-36.0625,6.1875,-8.1875,-8.0625,95.9375,-56.75,-31.375,0.47442626953125,0.203125,-0.63641357421875,0.57330322265625,7.0,34.0,65.0,-820.0,279.0,458.0,922,846.5140599804548,329.5924503433787,
197,9.268926620483398,0.044004201889038086,22.72510253728998,21.253809428661324,102098.75,-848.0,326.0,494.0,25.5625,-17.0625,-36.375,4.8125,5.5,-3.25,96.3125,-56.8125,-31.25,0.4747314453125,0.20245361328125,-0.63836669921875,0.571044921875,-26.0,48.0,36.0,-821.0,278.0,458.0,875,852.2112479843639,289.5677965873135,
198,9.319931983947754,0.05100536346435547,19.605781276293403,21.244790234631175,102098.75,-833.0,309.0,502.0,27.75,-17.75,-35.6875,-3.625,9.5,-6.125,96.4375,-57.0625,-31.3125,0.4759521484375,0.203857421875,-0.6380615234375,0.56988525390625,-10.0,32.0,47.0,-823.0,276.0,454.0,889,859.5689983874911,260.505126287705,
199,9.367936849594116,0.048004865646362305,20.83122172170432,21.24267095252911,102092.75,-867.0,287.0,490.0,28.5,-17.75,-35.6875,-7.8125,13.125,-9.8125,96.5,-57.75,-30.9375,0.476806640625,0.2098388671875,-0.63702392578125,0.56817626953125,-37.0,17.0,41.0,-829.0,269.0,448.0,922,872.0551987099929,260.4246625060941,
200,9.412941217422485,0.04500436782836914,22.220065479280787,21.247343989551158,102092.75,-828.0,258.0,493.0,28.5,-17.75,-35.6875,-7.4375,12.3125,-17.75,96.8125,-58.4375,-30.1875,0.4766845703125,0.21612548828125,-0.63739013671875,0.5654296875,7.0,0.0,49.0,-835.0,258.0,443.0,959,889.4441589679943,285.6164971147561,
201,9.455945491790771,0.04300427436828613,23.25350246433779,21.25646770854371,102092.75,-792.0,232.0,544.0,28.5,-16.0,-34.875,-13.1875,14.875,-23.5625,97.3125,-59.5,-28.8125,0.47589111328125,0.2269287109375,-0.63818359375,0.56103515625,52.0,-6.0,108.0,-845.0,239.0,435.0,959,903.3553271743956,293.18987452567876,
202,9.50195026397705,0.0460047721862793,21.736875382207526,21.25879365689846,102092.75,-718.0,192.0,522.0,28.5,-15.5625,-36.0625,-19.9375,22.875,-16.375,97.5,-60.8125,-27.375,0.47454833984375,0.23822021484375,-0.6373291015625,0.5584716796875,134.0,-35.0,100.0,-854.0,222.0,427.0,978,918.2842617395165,299.45357766677586,
203,9.54695439338684,0.04500412940979004,22.22018319462177,21.263325625669456,102092.75,-783.0,244.0,480.0,29.25,-14.5,-35.25,-23.25,28.75,-9.0,97.125,-61.9375,-26.4375,0.4747314453125,0.25323486328125,-0.63201904296875,0.55767822265625,81.0,39.0,67.0,-865.0,205.0,412.0,988,932.2274093916133,301.5267211612707,
204,9.59295916557312,0.0460047721862793,21.736875382207526,21.26559661924843,102092.75,-839.0,238.0,470.0,30.0,-13.375,-34.875,-20.4375,30.1875,-9.0,96.5625,-63.125,-26.0,0.47601318359375,0.265625,-0.62603759765625,0.5576171875,30.0,62.0,56.0,-874.0,194.0,397.0,992,944.1819275132906,293.1921510620649,
205,9.636963605880737,0.04400444030761719,22.724979411382254,21.272260473714297,102092.75,-902.0,212.0,508.0,31.5,-12.6875,-35.25,-16.5625,29.1875,-7.25,96.125,-64.625,-25.6875,0.478515625,0.27972412109375,-0.61920166015625,0.55621337890625,-16.0,30.0,130.0,-886.0,182.0,378.0,1039,963.1455420106324,320.7432706531486,
206,9.685968399047852,0.04900479316711426,20.406167139402843,21.26787859644991,102092.75,-993.0,247.0,417.0,32.25,-11.5,-34.0625,-11.5625,0.75,-8.875,95.75,-65.25,-24.6875,0.476318359375,0.28875732421875,-0.61614990234375,0.556884765625,-102.0,76.0,45.0,-890.0,171.0,372.0,1053,981.116433608506,329.9380200405785,
207,9.7309730052948,0.04500460624694824,22.219947765187033,21.27228180443698,102092.5,-939.0,213.0,450.0,32.5625,-10.375,-34.0625,-0.3125,30.5625,11.0,95.25,-65.9375,-25.25,0.4788818359375,0.2945556640625,-0.6109619140625,0.55731201171875,-44.0,42.0,89.0,-895.0,170.0,360.0,1091,1003.0931468868049,361.61470025132166,
208,9.780977964401245,0.05000495910644531,19.998016554144257,21.265767161222,102092.5,-983.0,221.0,418.0,33.0625,-10.375,-33.6875,-1.875,36.9375,27.0,94.0,-66.875,-28.4375,0.48809814453125,0.29876708984375,-0.5999755859375,0.55902099609375,-81.0,38.0,80.0,-901.0,183.0,338.0,1105,1023.474517509444,370.8091576225946,
209,9.826982736587524,0.0460047721862793,21.736875382207526,21.267972642493564,102092.5,-1073.0,307.0,371.0,34.5625,-11.875,-31.375,5.3125,-12.1875,40.875,92.1875,-66.625,-33.125,0.49749755859375,0.29449462890625,-0.58795166015625,0.56573486328125,-172.0,94.0,46.0,-900.0,212.0,325.0,1175,1053.7796140075552,428.3949473031191,
210,9.874987602233887,0.048004865646362305,20.83122172170432,21.265849483445884,102092.5,-891.0,242.0,204.0,33.375,-12.25,-32.5625,0.9375,-39.0625,40.5625,90.5,-64.125,-34.625,0.4937744140625,0.277099609375,-0.58563232421875,0.580078125,-8.0,-1.0,-147.0,-882.0,243.0,351.0,1189,1080.8236912060443,455.38819151861804,
211,9.921992063522339,0.04700446128845215,21.27457633996277,21.265890826070095,102092.5,-791.0,184.0,180.0,32.6875,-13.375,-34.0625,8.0625,-28.5,41.4375,88.9375,-61.625,-36.0,0.490478515625,0.2596435546875,-0.58294677734375,0.59344482421875,67.0,-89.0,-173.0,-862.0,274.0,376.0,1207,1106.0589529648355,471.68445376416395,
212,9.970997095108032,0.04900503158569336,20.4060678596102,21.261665004797905,102092.5,-945.0,184.0,230.0,30.375,-14.75,-34.5,17.0625,16.4375,45.0,87.125,-60.3125,-39.75,0.4986572265625,0.24755859375,-0.57275390625,0.6016845703125,-93.0,-126.0,-142.0,-852.0,310.0,372.0,1278,1140.4471623718684,517.6931899574113,
213,10.021002054214478,0.05000495910644531,19.998016554144257,21.255359378997408,102092.5,-914.0,276.0,255.0,28.875,-17.5,-33.6875,21.0625,-6.625,41.25,85.75,-59.125,-43.75,0.50994873046875,0.23419189453125,-0.5634765625,0.60626220703125,-48.0,-89.0,-85.0,-842.0,347.0,363.0,1320,1176.3577298974947,557.7825767351667,
214,10.072007179260254,0.05100512504577637,19.60587292164296,21.24700630085506,102092.5,-851.0,287.0,314.0,29.375,-17.75,-33.6875,20.5625,18.25,44.5625,84.5,-58.125,-46.75,0.5186767578125,0.22418212890625,-0.554931640625,0.61053466796875,-18.0,-89.0,-40.0,-831.0,384.0,349.0,1334,1207.8861839179958,569.854633976495,
215,10.120012044906616,0.048004865646362305,20.83122172170432,21.245034002524644,102096.5,-828.0,311.0,296.0,29.375,-17.75,-33.6875,17.3125,33.625,41.6875,82.9375,-57.625,-50.625,0.534423828125,0.21832275390625,-0.538818359375,0.613525390625,17.0,-129.0,-42.0,-827.0,412.0,327.0,1297,1225.7089471343968,530.137693632053,
216,10.166016578674316,0.046004533767700195,21.736988033603343,21.247260254632316,102096.5,-858.0,364.0,299.0,29.0,-20.0625,-32.5625,7.0625,24.0625,33.3125,81.0,-57.0625,-54.8125,0.544921875,0.216064453125,-0.52642822265625,0.6158447265625,-40.0,-85.0,-4.0,-822.0,439.0,303.0,1357,1251.9671577075176,538.265036707995,
217,10.217021703720093,0.05100512504577637,19.60587292164296,21.239066167490737,102096.5,-818.0,359.0,339.0,27.875,-24.1875,-31.75,-0.125,8.1875,28.3125,79.625,-56.1875,-56.625,0.55035400390625,0.21063232421875,-0.51763916015625,0.62030029296875,-19.0,-97.0,49.0,-815.0,455.0,299.0,1366,1274.773726166014,520.0405659616026,
218,10.265026330947876,0.0480046272277832,20.831325181528314,21.237159357570768,102096.5,-731.0,401.0,268.0,27.875,-24.1875,-31.75,5.5,11.0625,30.0,78.3125,-55.25,-58.5,0.55621337890625,0.20489501953125,-0.50885009765625,0.62420654296875,74.0,-74.0,-22.0,-806.0,476.0,291.0,1380,1295.8189809328114,503.7125618843351,
219,10.309031009674072,0.04400467872619629,22.724856286808727,21.243509675593057,102096.5,-719.0,447.0,303.0,27.875,-23.375,-30.5625,8.625,11.125,31.875,77.0,-54.1875,-60.5,0.5631103515625,0.197998046875,-0.49951171875,0.62786865234375,73.0,-25.0,26.0,-795.0,499.0,281.0,1446,1325.8551847462493,539.4837325198024,
220,10.355035305023193,0.046004295349121094,21.737100686166794,21.245702551422372,102096.5,-815.0,552.0,385.0,27.1875,-24.1875,-30.1875,4.4375,12.75,35.5625,75.375,-53.0,-62.4375,0.56939697265625,0.19140625,-0.48876953125,0.63262939453125,-69.0,67.0,109.0,-783.0,523.0,272.0,1474,1355.4841477969994,560.3965366280163,
221,10.401040077209473,0.0460047721862793,21.736875382207526,21.247875054750562,102096.5,-834.0,669.0,271.0,27.5625,-24.875,-31.375,9.6875,26.4375,41.0625,73.125,-51.8125,-65.25,0.57952880859375,0.1871337890625,-0.4727783203125,0.63690185546875,-52.0,104.0,-168.0,-771.0,550.0,253.0,1488,1381.9873182375995,563.5364519225593,
222,10.446044445037842,0.04500436782836914,22.220065479280787,21.252063512467256,102096.5,-863.0,787.0,242.0,26.75,-25.6875,-29.875,-7.625,-61.875,31.25,72.25,-50.0,-64.75,0.5771484375,0.17315673828125,-0.47076416015625,0.6444091796875,-128.0,247.0,1.0,-751.0,569.0,268.0,1554,1416.3898545900797,603.7144836191369,
223,10.492049217224121,0.0460047721862793,21.736875382207526,21.25418928019469,102095.25,-911.0,795.0,309.0,26.375,-27.1875,-29.375,-25.8125,-40.6875,12.0625,72.0,-48.0625,-61.375,0.56134033203125,0.158447265625,-0.4775390625,0.65704345703125,-130.0,173.0,-11.0,-729.0,575.0,313.0,1502,1433.511883672064,557.4074693844344,
224,10.539053916931152,0.04700469970703125,21.274468430449602,21.25427972620394,102095.25,-633.0,658.0,182.0,23.75,-26.75,-32.0625,-3.1875,-3.125,21.0,71.125,-47.0625,-60.4375,0.55548095703125,0.1534423828125,-0.47540283203125,0.66473388671875,106.0,63.0,-146.0,-720.0,578.0,328.0,1526,1452.0095069376512,524.6313959479646,
225,10.585058212280273,0.046004295349121094,21.737100686166794,21.256378140553434,102095.25,-588.0,640.0,193.0,23.375,-27.5,-31.6875,6.0625,-1.5,30.0625,70.1875,-46.125,-61.125,0.55780029296875,0.14764404296875,-0.46966552734375,0.66815185546875,104.0,62.0,-121.0,-707.0,595.0,327.0,1568,1475.2076055501211,520.5569978117488,
226,10.631062984466553,0.0460047721862793,21.736875382207526,21.258457440259466,102095.25,-671.0,677.0,243.0,22.0,-27.5625,-34.0,4.875,-5.625,31.625,69.375,-45.25,-61.625,0.559326171875,0.141845703125,-0.465087890625,0.67138671875,28.0,63.0,-72.0,-696.0,607.0,327.0,1554,1490.966084440097,484.9536166183094,
227,10.67506742477417,0.04400444030761719,22.724979411382254,21.264502692806378,102095.25,-707.0,721.0,238.0,20.875,-28.5625,-32.0625,12.4375,0.5,26.1875,68.375,-44.0,-62.625,0.56329345703125,0.13250732421875,-0.45831298828125,0.67462158203125,-26.0,95.0,-85.0,-681.0,626.0,323.0,1544,1501.5728675520775,436.17067886279864,
228,10.722072124481201,0.04700469970703125,21.274468430449602,21.264546381796702,102095.25,-706.0,762.0,271.0,20.875,-30.0625,-32.5,8.875,-0.3125,20.0625,67.6875,-43.0625,-63.5625,0.56756591796875,0.12445068359375,-0.45343017578125,0.67584228515625,-37.0,120.0,-47.0,-669.0,641.0,318.0,1535,1508.258294041662,377.3823220495909,
229,10.76707649230957,0.04500436782836914,22.220065479280787,21.268540273078234,102095.25,-671.0,749.0,206.0,20.0625,-30.5,-32.0625,1.4375,7.6875,16.9375,66.8125,-42.375,-64.375,0.57080078125,0.12060546875,-0.4473876953125,0.6778564453125,-10.0,96.0,-106.0,-661.0,653.0,313.0,1493,1505.20663523333,288.3442459313599,
230,10.811080932617188,0.04400444030761719,22.724979411382254,21.274468430449602,102095.25,-662.0,737.0,204.0,20.0625,-30.5,-32.0625,2.8125,6.5625,17.4375,66.0625,-41.875,-64.9375,0.572998046875,0.11871337890625,-0.44207763671875,0.6798095703125,-7.0,76.0,-104.0,-655.0,661.0,309.0,1469,1497.965308186664,197.76359513577432,
231,10.854085445404053,0.043004512786865234,23.253373546076485,21.282308966695336,102095.25,-666.0,703.0,239.0,20.5,-30.5,-31.6875,6.5625,0.9375,13.4375,65.375,-41.375,-65.9375,0.578369140625,0.11468505859375,-0.43603515625,0.67987060546875,-16.0,33.0,-51.0,-647.0,673.0,298.0,1516,1501.5722465493313,174.98557312957462,
232,10.900089740753174,0.046004295349121094,21.737100686166794,21.284228434615557,102097.5,-704.0,758.0,333.0,20.0625,-30.5,-32.875,6.3125,-5.75,8.3125,65.1875,-41.0,-66.25,0.5794677734375,0.111083984375,-0.4349365234375,0.68023681640625,-61.0,79.0,35.0,-642.0,678.0,297.0,1559,1513.0577972394651,189.9209728611618,
233,10.944094181060791,0.04400444030761719,22.724979411382254,21.29002146228019,102097.5,-679.0,717.0,359.0,19.375,-32.0,-32.0625,6.0,0.5625,3.125,65.1875,-40.6875,-66.4375,0.58099365234375,0.108154296875,-0.4346923828125,0.6795654296875,6.0,8.0,6.0,-639.0,682.0,295.0,1587,1527.8462377915723,219.15017970354677,
234,10.98909878730774,0.04500460624694824,22.219947765187033,21.29382986985856,102097.5,-565.0,627.0,199.0,19.375,-31.5625,-32.5,6.25,-1.1875,-3.4375,65.3125,-40.6875,-66.75,0.582275390625,0.1080322265625,-0.4344482421875,0.67864990234375,67.0,-52.0,-80.0,-639.0,683.0,292.0,1605,1543.276990233258,243.8942464091948,
235,11.035103559494019,0.0460047721862793,21.736875382207526,21.29567690353195,102097.5,-634.0,647.0,209.0,19.0,-31.5625,-31.25,6.4375,-12.1875,-8.9375,65.875,-40.8125,-66.625,0.582275390625,0.10601806640625,-0.4385986328125,0.67626953125,21.0,-36.0,-84.0,-641.0,681.0,293.0,1610,1556.6215921866064,253.12938706437578,
236,11.08110785484314,0.046004295349121094,21.737100686166794,21.297509517232356,102097.5,-706.0,686.0,285.0,18.6875,-30.5,-32.0625,5.1875,-16.9375,-13.875,66.9375,-41.0625,-66.125,0.58050537109375,0.10406494140625,-0.4454345703125,0.67364501953125,-62.0,10.0,-12.0,-644.0,676.0,298.0,1638,1572.8972737492854,273.26073542428895,
237,11.128112554550171,0.04700469970703125,21.274468430449602,21.29741219260881,102097.5,-712.0,662.0,322.0,19.375,-32.0,-31.25,0.625,-10.4375,-14.25,68.0625,-41.4375,-65.5,0.57794189453125,0.1031494140625,-0.453125,0.67083740234375,-62.0,-6.0,17.0,-649.0,668.0,304.0,1634,1585.1178189994284,270.60570916484085,
238,11.176117420196533,0.048004865646362305,20.83122172170432,21.295409760987887,102097.5,-708.0,729.0,315.0,18.6875,-32.0,-32.5,-5.6875,-2.9375,-6.125,68.625,-41.75,-64.875,0.5751953125,0.1044921875,-0.45745849609375,0.6700439453125,-54.0,66.0,5.0,-653.0,662.0,310.0,1629,1593.8942551995428,253.04934501406774,
239,11.223122119903564,0.04700469970703125,21.274468430449602,21.29532205447067,102097.5,-682.0,669.0,284.0,19.0,-30.875,-31.6875,-4.5625,-2.3125,1.6875,68.5625,-41.75,-64.5625,0.573486328125,0.10498046875,-0.4578857421875,0.671142578125,-29.0,9.0,-29.0,-653.0,660.0,314.0,1591,1593.3154041596345,199.97652637636145,
240,11.268126726150513,0.04500460624694824,22.219947765187033,21.299014985607133,102095.75,-666.0,639.0,302.0,18.6875,-32.25,-32.0625,2.125,2.1875,0.0625,68.625,-41.6875,-64.5625,0.573486328125,0.10418701171875,-0.4581298828125,0.67108154296875,-13.0,-21.0,-12.0,-652.0,661.0,314.0,1591,1592.8523233277076,157.9232947217944,
241,11.318131685256958,0.05000495910644531,19.998016554144257,21.293267007480353,102095.75,-668.0,641.0,331.0,19.0,-31.25,-30.1875,2.5625,1.4375,-0.375,68.75,-41.75,-64.75,0.5745849609375,0.104248046875,-0.45849609375,0.669921875,-15.0,-19.0,19.0,-653.0,661.0,311.0,1573,1588.881858662166,110.45835215560632,
242,11.368136644363403,0.05000495910644531,19.998016554144257,21.287569596552082,102095.75,-645.0,648.0,303.0,19.6875,-30.0625,-31.6875,2.1875,2.9375,1.25,68.5625,-41.8125,-64.875,0.57537841796875,0.10546875,-0.45709228515625,0.66998291015625,8.0,-13.0,-5.0,-654.0,661.0,309.0,1681,1607.305486929733,162.053886340926,
243,11.413141250610352,0.04500460624694824,22.219947765187033,21.29124617528105,102095.75,-661.0,661.0,319.0,19.0,-32.0,-31.0,1.1875,-0.875,1.0,68.625,-41.75,-65.0,0.57598876953125,0.10443115234375,-0.45733642578125,0.66949462890625,-7.0,-1.0,10.0,-653.0,662.0,308.0,1605,1606.8443895437865,127.59399710666187,
244,11.461146116256714,0.048004865646362305,20.83122172170432,21.289319368671656,102095.75,-682.0,686.0,307.0,19.0,-32.0,-31.0,0.0625,-1.5,0.9375,68.625,-41.75,-65.0,0.575927734375,0.10400390625,-0.4573974609375,0.6695556640625,-29.0,23.0,-1.0,-653.0,663.0,308.0,1629,1611.2755116350293,120.53633503705343,
245,11.508150815963745,0.04700469970703125,21.274468430449602,21.28925871045622,102095.75,-686.0,697.0,311.0,19.0,-30.875,-31.25,-1.25,-2.875,-0.5625,68.6875,-41.6875,-64.875,0.5753173828125,0.10357666015625,-0.457763671875,0.669921875,-34.0,34.0,0.0,-652.0,662.0,310.0,1620,1613.0204093080235,103.85342212133912,
246,11.552155017852783,0.044004201889038086,22.72510253728998,21.294728093574733,102095.75,-688.0,677.0,334.0,19.0,-31.5625,-31.25,-1.1875,-2.125,-2.75,68.8125,-41.6875,-64.625,0.57427978515625,0.1033935546875,-0.45904541015625,0.669921875,-35.0,16.0,21.0,-652.0,661.0,312.0,1624,1615.216327446419,93.06323066877752,
247,11.600159883499146,0.048004865646362305,20.83122172170432,21.292809968192728,102095.75,-655.0,672.0,331.0,18.6875,-31.25,-32.0625,-1.6875,1.5625,-3.0625,68.9375,-41.8125,-64.5625,0.57379150390625,0.104248046875,-0.45977783203125,0.669677734375,0.0,12.0,17.0,-654.0,659.0,313.0,1601,1612.3730619571354,62.60484577083479,
248,11.647164583206177,0.04700469970703125,21.274468430449602,21.292735946874696,102098.0,-640.0,664.0,311.0,19.0,-30.875,-31.6875,-2.25,0.3125,-0.8125,68.9375,-41.9375,-64.4375,0.5732421875,0.10540771484375,-0.4599609375,0.66986083984375,15.0,6.0,-3.0,-655.0,658.0,314.0,1596,1609.0984495657085,36.15074902799371,
249,11.696169376373291,0.04900479316711426,20.406167139402843,21.289021387035444,102098.0,-658.0,679.0,312.0,19.0,-30.875,-32.875,0.8125,-2.4375,-1.375,68.9375,-41.9375,-64.3125,0.57269287109375,0.10540771484375,-0.46026611328125,0.67010498046875,-3.0,22.0,-2.0,-655.0,657.0,315.0,1601,1607.4787596525669,22.31026660608027,
250,11.74117398262024,0.04500460624694824,22.219947765187033,21.29258968226347,102098.0,-659.0,681.0,328.0,19.0,-31.5625,-32.0625,4.0625,-3.1875,-2.875,69.1875,-41.9375,-64.3125,0.5728759765625,0.104248046875,-0.46160888671875,0.66900634765625,-4.0,19.0,3.0,-655.0,657.0,315.0,1615,1608.9830077220536,24.53307599083989,
251,11.789178848266602,0.048004865646362305,20.83122172170432,21.290711018172846,102098.0,-673.0,679.0,332.0,18.25,-31.5625,-32.875,3.1875,-6.5625,-2.5,69.5,-41.9375,-64.25,0.5728759765625,0.10284423828125,-0.46380615234375,0.66796875,-17.0,22.0,15.0,-655.0,656.0,316.0,1573,1601.7864061776431,-10.356339690202816,
252,11.840183734893799,0.051004886627197266,19.605964567849295,21.28345350396375,102098.0,-648.0,651.0,291.0,19.375,-30.0625,-32.0625,-0.375,-3.375,-1.375,69.6875,-41.9375,-64.0,0.57183837890625,0.10223388671875,-0.4649658203125,0.6680908203125,2.0,-6.0,-18.0,-655.0,656.0,318.0,1591,1599.6291249421147,-16.744187645493618,
253,11.889188766479492,0.04900503158569336,20.4060678596102,21.279837083023775,102098.0,-669.0,670.0,282.0,19.375,-30.875,-32.5,-2.1875,-8.625,-0.6875,69.75,-41.8125,-63.75,0.57037353515625,0.101318359375,-0.46636962890625,0.6685791015625,-15.0,15.0,-39.0,-654.0,655.0,322.0,1591,1597.9032999536919,-20.438810481908227,
254,11.939193964004517,0.050005197525024414,19.9979212060819,21.274468005611162,102098.0,-692.0,696.0,308.0,19.375,-30.0625,-32.875,-1.0,-5.6875,-1.9375,69.75,-41.75,-63.375,0.56829833984375,0.1009521484375,-0.46710205078125,0.6697998046875,-33.0,41.0,-30.0,-653.0,654.0,327.0,1582,1594.7226399629537,-29.072365961150325,
255,11.983198165893555,0.044004201889038086,22.72510253728998,21.27979496540232,102098.0,-649.0,699.0,283.0,18.25,-31.25,-32.0625,5.375,0.5625,-6.125,70.0625,-41.9375,-63.5625,0.5694580078125,0.10089111328125,-0.4686279296875,0.66778564453125,12.0,57.0,-54.0,-655.0,653.0,324.0,1587,1593.1781119703633,-30.2778041695869,
256,12.032202959060669,0.04900479316711426,20.406167139402843,21.27623685130935,102100.0,-622.0,751.0,264.0,19.375,-30.0625,-31.6875,12.0,-3.3125,-8.875,70.6875,-42.25,-63.8125,0.57159423828125,0.1009521484375,-0.47113037109375,0.6641845703125,37.0,111.0,-59.0,-659.0,651.0,319.0,1596,1593.7424895762908,-21.918886584410696,
257,12.077207565307617,0.04500460624694824,22.219947765187033,21.279753503470896,102100.0,-616.0,804.0,269.0,18.6875,-30.875,-31.6875,17.75,-6.8125,-8.9375,71.25,-42.4375,-64.0625,0.5733642578125,0.09930419921875,-0.4739990234375,0.66082763671875,45.0,153.0,-47.0,-661.0,650.0,316.0,1610,1596.9939916610329,-3.085467971255696,
258,12.128212690353394,0.05100512504577637,19.60587292164296,21.272714008817598,102100.0,-634.0,773.0,271.0,18.6875,-30.875,-32.875,23.25,-12.125,-11.0,72.5,-42.625,-64.4375,0.57672119140625,0.0946044921875,-0.4798583984375,0.65435791015625,29.0,121.0,-39.0,-664.0,651.0,310.0,1610,1599.5951933288263,7.731391491460366,
259,12.178217649459839,0.05000495910644531,19.998016554144257,21.267479975732563,102100.0,-599.0,756.0,232.0,18.25,-30.875,-33.25,24.0,-10.625,-12.625,73.875,-42.9375,-64.9375,0.58062744140625,0.09039306640625,-0.486328125,0.64666748046875,71.0,111.0,-58.0,-668.0,650.0,303.0,1516,1582.8761546630612,-60.68440920830132,
260,12.230222940444946,0.05200529098510742,19.22881270458359,21.25881116526409,102100.0,-610.0,743.0,165.0,18.25,-33.75,-31.0,21.3125,-22.0,-5.375,76.0,-43.0,-65.3125,0.58428955078125,0.07958984375,-0.49749755859375,0.63623046875,47.0,86.0,-120.0,-670.0,650.0,298.0,1526,1571.5009237304491,-92.29396438155786,
261,12.280227899551392,0.05000495910644531,19.998016554144257,21.253677222841652,102100.0,-655.0,715.0,185.0,19.6875,-33.375,-31.0,21.125,-24.9375,-4.6875,76.8125,-42.8125,-65.3125,0.58447265625,0.0736083984375,-0.5023193359375,0.63299560546875,14.0,62.0,-114.0,-667.0,653.0,300.0,1512,1559.6007389843594,-121.4311898151818,
262,12.326232671737671,0.0460047721862793,21.736875382207526,21.255480646631746,102100.0,-675.0,722.0,210.0,18.25,-33.375,-29.875,20.8125,-25.6875,-8.4375,78.375,-42.625,-65.125,0.58441162109375,0.06390380859375,-0.51123046875,0.62689208984375,-11.0,67.0,-92.0,-664.0,654.0,302.0,1479,1543.4805911874876,-167.22528061281952,
263,12.373237133026123,0.04700446128845215,21.27457633996277,21.25555318890733,102100.5,-675.0,685.0,204.0,17.875,-33.375,-30.6875,22.625,-21.25,-12.9375,80.0,-42.625,-65.0625,0.58489990234375,0.0557861328125,-0.520263671875,0.6197509765625,-10.0,31.0,-98.0,-664.0,654.0,303.0,1451,1524.9844729499903,-212.47964037757833,
264,12.429242849349976,0.05600571632385254,17.855320235840022,21.240231862860952,102100.5,-665.0,712.0,146.0,18.25,-33.0625,-30.6875,21.5,-15.0625,-15.5,81.5,-42.9375,-65.4375,0.58782958984375,0.05059814453125,-0.527099609375,0.61163330078125,-5.0,71.0,-146.0,-668.0,652.0,297.0,1408,1501.5875783599922,-253.53552138778434,
265,12.479247808456421,0.05000495910644531,19.998016554144257,21.23525424508565,102100.5,-687.0,710.0,152.0,17.5625,-33.0625,-30.0625,19.75,-11.5,-15.5,83.1875,-43.4375,-66.0,0.5919189453125,0.046142578125,-0.534423828125,0.60162353515625,-12.0,60.0,-136.0,-674.0,650.0,289.0,1390,1479.270062687994,-292.0896266814267,
266,12.526252508163452,0.04700469970703125,21.274468430449602,21.235401396119535,102100.5,-699.0,689.0,168.0,17.5625,-34.1875,-29.0,21.5,-7.375,-14.625,84.25,-43.9375,-67.5625,0.600830078125,0.04266357421875,-0.535400390625,0.59197998046875,-18.0,36.0,-100.0,-680.0,652.0,268.0,1357,1454.8160501503953,-337.7209248909334,
267,12.574257373809814,0.048004865646362305,20.83122172170432,21.23385835541419,102100.5,-706.0,688.0,162.0,17.875,-34.1875,-29.0,22.6875,-3.375,-14.125,85.3125,-44.5625,-69.5,0.61151123046875,0.04058837890625,-0.53558349609375,0.58099365234375,-18.0,34.0,-81.0,-688.0,654.0,243.0,1353,1434.4528401203165,-355.01484853318766,
268,12.622262001037598,0.0480046272277832,20.831325181528314,21.232327452715637,102100.5,-770.0,695.0,278.0,18.6875,-34.875,-28.25,21.8125,-2.625,-14.125,86.6875,-45.125,-70.5,0.61737060546875,0.037841796875,-0.53948974609375,0.5712890625,-74.0,43.0,48.0,-695.0,651.0,230.0,1311,1409.7622720962534,-386.8793291117311,
269,12.669266700744629,0.04700469970703125,21.274468430449602,21.23248380146498,102100.5,-791.0,763.0,299.0,19.6875,-35.25,-28.5625,14.5,-13.375,-12.3125,88.0,-45.6875,-70.875,0.62017822265625,0.03619384765625,-0.5445556640625,0.56353759765625,-89.0,116.0,75.0,-702.0,646.0,223.0,1264,1380.6098176770026,-433.544057531879,
270,12.720271825790405,0.05100512504577637,19.60587292164296,21.225961496559677,102100.5,-805.0,771.0,446.0,19.6875,-35.25,-27.0625,16.4375,-9.3125,5.125,88.875,-45.5625,-70.875,0.62017822265625,0.02978515625,-0.549072265625,0.55950927734375,-104.0,122.0,222.0,-700.0,648.0,224.0,1287,1361.8878541416022,-420.24733360924193,
271,12.767276525497437,0.04700469970703125,21.274468430449602,21.226140082325923,102097.25,-705.0,678.0,319.0,19.375,-34.875,-27.5,17.6875,1.9375,7.9375,89.0625,-45.1875,-71.8125,0.62432861328125,0.02337646484375,-0.54791259765625,0.55633544921875,-8.0,22.0,104.0,-696.0,656.0,215.0,1278,1345.1102833132818,-407.58464707274067,
272,12.813281297683716,0.0460047721862793,21.736875382207526,21.227973825031846,102097.25,-675.0,629.0,297.0,19.375,-34.875,-27.5,13.3125,0.4375,12.75,89.0,-44.8125,-72.5625,0.62725830078125,0.018310546875,-0.5458984375,0.55523681640625,16.0,-34.0,88.0,-691.0,663.0,208.0,1315,1339.0882266506255,-352.247856702343,
273,12.858285903930664,0.04500460624694824,22.219947765187033,21.231445780541115,102097.25,-656.0,653.0,307.0,18.25,-36.375,-26.25,12.75,2.1875,13.875,88.6875,-44.1875,-73.4375,0.63079833984375,0.01220703125,-0.5423583984375,0.5548095703125,27.0,-19.0,107.0,-684.0,673.0,200.0,1408,1352.8705813205006,-220.54964519269322,
274,12.907290697097778,0.04900479316711426,20.406167139402843,21.22831246541997,102097.25,-654.0,656.0,258.0,17.875,-36.375,-28.25,14.3125,-3.75,16.5,87.75,-43.375,-73.5,0.63006591796875,0.00738525390625,-0.5384521484375,0.5594482421875,18.0,-27.0,57.0,-673.0,683.0,201.0,1034,1289.0964650564006,-436.7167712847415,
275,12.95429539680481,0.04700469970703125,21.274468430449602,21.228479942477538,102097.25,-677.0,674.0,272.0,19.0,-37.0625,-26.25,17.0,-12.25,12.25,87.4375,-42.75,-73.9375,0.6314697265625,0.00189208984375,-0.53594970703125,0.56036376953125,-11.0,-17.0,74.0,-665.0,692.0,198.0,1091,1249.4771720451206,-517.9492967088349,
276,12.999299764633179,0.04500436782836914,22.220065479280787,21.231912872022942,102097.25,-629.0,649.0,185.0,18.25,-36.375,-26.0,22.9375,2.6875,9.0,87.125,-42.1875,-74.9375,0.635498046875,-0.00390625,-0.5322265625,0.559326171875,29.0,-51.0,-2.0,-659.0,701.0,188.0,1011,1201.7817376360965,-626.3185724933194,
277,13.04630446434021,0.04700469970703125,21.274468430449602,21.232066195996808,102097.25,-600.0,639.0,127.0,18.25,-38.25,-25.5,23.3125,-4.4375,6.25,87.125,-41.875,-76.1875,0.64117431640625,-0.0093994140625,-0.5289306640625,0.555908203125,54.0,-69.0,-46.0,-654.0,708.0,174.0,1049,1171.2253901088773,-631.0688681581902,
278,13.094309329986572,0.048004865646362305,20.83122172170432,21.230596665634526,102097.25,-633.0,659.0,144.0,17.5625,-38.25,-24.75,19.625,-9.25,3.75,87.25,-41.625,-76.75,0.64373779296875,-0.013916015625,-0.528076171875,0.55364990234375,18.0,-53.0,-23.0,-651.0,713.0,167.0,1025,1141.980312087102,-626.6972354345808,
279,13.13831377029419,0.04400444030761719,22.724979411382254,21.235601834294805,102092.75,-649.0,671.0,119.0,16.75,-39.375,-24.75,17.0,-8.1875,-4.5625,87.75,-41.5625,-77.25,0.6461181640625,-0.0179443359375,-0.52899169921875,0.54986572265625,1.0,-43.0,-42.0,-651.0,715.0,161.0,988,1111.1842496696818,-641.3257652251681,
280,13.187318563461304,0.04900479316711426,20.406167139402843,21.232519609847646,102092.75,-671.0,712.0,124.0,17.1875,-39.75,-24.375,11.25,-15.625,-9.5,88.5625,-41.8125,-77.3125,0.6463623046875,-0.0198974609375,-0.53277587890625,0.54583740234375,-17.0,0.0,-36.0,-654.0,712.0,160.0,913,1071.5473997357453,-674.8278491064017,
281,13.233323335647583,0.0460047721862793,21.736875382207526,21.23427296928879,102092.75,-691.0,735.0,119.0,17.875,-40.0625,-23.1875,8.5625,-15.625,-11.9375,89.5625,-42.1875,-77.0625,0.64569091796875,-0.02032470703125,-0.53668212890625,0.5428466796875,-28.0,24.0,-31.0,-658.0,708.0,162.0,834,1024.0379197885964,-746.4038083020544,
282,13.281328201293945,0.048004865646362305,20.83122172170432,21.232816155580426,102092.75,-697.0,773.0,89.0,16.75,-39.375,-22.75,10.6875,-21.0625,-8.8125,90.625,-42.5,-76.625,0.6439208984375,-0.021728515625,-0.54248046875,0.53753662109375,-37.0,68.0,-61.0,-662.0,703.0,165.0,717,962.6303358308771,-852.9620460051281,
283,13.33033299446106,0.04900479316711426,20.406167139402843,21.22977723944259,102092.75,-713.0,802.0,139.0,18.25,-39.375,-22.5,19.3125,-25.25,-3.125,91.5,-42.5,-76.375,0.6422119140625,-0.02728271484375,-0.54888916015625,0.53436279296875,-50.0,99.0,-30.0,-662.0,702.0,170.0,1002,970.5042686647017,-650.2342789138112,
284,13.374337196350098,0.044004201889038086,22.72510253728998,21.234697154002113,102092.75,-707.0,860.0,199.0,17.875,-40.875,-22.5,37.3125,-15.1875,7.875,92.6875,-42.125,-77.0,0.644287109375,-0.03887939453125,-0.552734375,0.527099609375,-49.0,152.0,36.0,-658.0,708.0,163.0,834,943.2034149317615,-644.2703632183736,
285,13.424342155456543,0.05000495910644531,19.998016554144257,21.230090584673984,102092.75,-636.0,819.0,151.0,17.1875,-39.75,-22.5,52.25,-6.25,22.125,93.125,-41.25,-79.0625,0.65264892578125,-0.05462646484375,-0.54888916015625,0.5194091796875,10.0,95.0,12.0,-646.0,723.0,139.0,707,895.9627319454092,-704.3602826527294,
286,13.474347352981567,0.050005197525024414,19.9979212060819,21.22551783086657,102092.75,-579.0,784.0,200.0,17.1875,-41.5625,-20.0,46.3125,-26.75,23.1875,93.8125,-40.0,-81.0,0.6590576171875,-0.07598876953125,-0.546630859375,0.51092529296875,41.0,54.0,118.0,-630.0,741.0,117.0,639,844.5701855563275,-769.0370447759368,
287,13.527352571487427,0.053005218505859375,18.86606693055056,21.216272621217144,102096.0,-620.0,827.0,279.0,16.0625,-42.25,-19.6875,39.8125,-16.5625,22.625,94.3125,-38.6875,-82.1875,0.66192626953125,-0.09539794921875,-0.545166015625,0.5054931640625,-6.0,69.0,175.0,-613.0,758.0,103.0,554,786.4561484450621,-834.5062985698758,
288,13.575357437133789,0.048004865646362305,20.83122172170432,21.214911013113362,102096.0,-519.0,781.0,188.0,14.875,-43.75,-20.0,31.0,-21.0,11.875,94.5625,-37.8125,-83.375,0.66546630859375,-0.1083984375,-0.54278564453125,0.500732421875,70.0,55.0,140.0,-601.0,769.0,88.0,531,735.3649187560497,-880.4635855931685,
289,13.62236213684082,0.04700469970703125,21.274468430449602,21.215116519213485,102096.0,-587.0,883.0,308.0,14.25,-44.5,-17.6875,21.9375,-25.1875,14.125,95.125,-37.0625,-83.6875,0.66455078125,-0.1212158203125,-0.54437255859375,0.497314453125,2.0,99.0,206.0,-591.0,777.0,85.0,503,688.8919350048399,-902.1084736113173,
290,13.672367095947266,0.05000495910644531,19.998016554144257,21.21066512951961,102096.0,-587.0,838.0,277.0,13.1875,-44.75,-17.375,19.0625,-26.25,6.625,95.5625,-36.5625,-83.8125,0.662841796875,-0.13153076171875,-0.54693603515625,0.494140625,0.0,61.0,195.0,-583.0,783.0,84.0,461,643.3135480038719,-903.9822464403641,
291,13.72137188911438,0.04900479316711426,20.406167139402843,21.207791928652554,102096.0,-549.0,786.0,254.0,12.75,-45.1875,-15.75,10.5625,-15.0,0.625,96.1875,-36.1875,-83.0,0.6575927734375,-0.13623046875,-0.55157470703125,0.4947509765625,29.0,1.0,157.0,-579.0,785.0,96.0,423,599.2508384030975,-903.0160004979658,
292,13.771376848220825,0.05000495910644531,19.998016554144257,21.203399138534543,102096.0,-469.0,767.0,108.0,12.75,-44.5,-16.875,3.3125,-11.9375,1.3125,96.375,-36.125,-82.875,0.656494140625,-0.13775634765625,-0.552734375,0.49444580078125,108.0,-18.0,10.0,-578.0,785.0,98.0,409,561.200670722478,-874.5983770313717,
293,13.823382377624512,0.05200552940368652,19.228724550376615,21.195970132047435,102096.0,-506.0,837.0,112.0,12.5,-45.1875,-15.25,4.3125,-17.125,8.25,96.625,-35.75,-82.5,0.6534423828125,-0.14263916015625,-0.55517578125,0.494384765625,67.0,48.0,9.0,-573.0,788.0,103.0,357,520.3605365779824,-856.7394396380845,
294,13.86838674545288,0.04500436782836914,22.220065479280787,21.19929342873249,102096.0,-570.0,898.0,157.0,12.5,-45.1875,-15.25,7.0,-11.25,10.0625,96.75,-35.25,-82.375,0.651123046875,-0.1484375,-0.5565185546875,0.4942626953125,-3.0,104.0,51.0,-566.0,793.0,105.0,297,475.68842926238597,-883.9149816404699,
295,13.914391279220581,0.046004533767700195,21.736988033603343,21.201071184518575,102097.75,-554.0,873.0,74.0,12.0625,-44.75,-16.875,15.25,-7.5,2.6875,96.625,-34.9375,-82.6875,0.65179443359375,-0.1524658203125,-0.5550537109375,0.4937744140625,6.0,76.0,-27.0,-561.0,797.0,101.0,292,438.9507434099088,-866.845312863891,
296,13.96039605140686,0.0460047721862793,21.736875382207526,21.202836861506558,102097.75,-518.0,874.0,54.0,11.6875,-43.6875,-15.25,17.5625,-3.75,-3.0625,97.0625,-34.9375,-83.3125,0.65460205078125,-0.15576171875,-0.55450439453125,0.4896240234375,43.0,76.0,-38.0,-562.0,798.0,92.0,245,400.16059472792705,-862.1115758826206,
297,14.007400751113892,0.04700469970703125,21.274468430449602,21.203077235894895,102097.75,-496.0,893.0,-25.0,11.25,-46.25,-15.6875,17.875,-9.4375,-2.75,97.6875,-35.0625,-83.9375,0.6571044921875,-0.1591796875,-0.55487060546875,0.4847412109375,71.0,80.0,-108.0,-563.0,797.0,84.0,315,383.12847578234164,-762.1591160684004,
298,14.054405450820923,0.04700469970703125,21.274468430449602,21.203316002427815,102097.75,-500.0,857.0,-33.0,11.25,-46.6875,-15.6875,24.3125,-6.9375,-8.6875,98.4375,-35.1875,-84.9375,0.66119384765625,-0.16400146484375,-0.55438232421875,0.4781494140625,72.0,38.0,-99.0,-565.0,798.0,70.0,329,372.3027806258733,-655.7894748235117,
299,14.102410078048706,0.0480046272277832,20.831325181528314,21.20204974505829,102097.75,-520.0,840.0,-70.0,11.0,-46.25,-15.25,26.9375,-12.6875,-15.125,99.75,-35.75,-85.8125,0.66546630859375,-0.1666259765625,-0.55657958984375,0.46868896484375,47.0,33.0,-129.0,-573.0,793.0,57.0,381,374.04222450069864,-517.3845956605086,
300,14.1514151096344,0.04900503158569336,20.4060678596102,21.199293333976016,102097.75,-583.0,828.0,-54.0,12.0625,-47.375,-13.75,28.5,-16.5,-20.3125,101.8125,-36.625,-86.5625,0.6689453125,-0.16949462890625,-0.56170654296875,0.45635986328125,-7.0,42.0,-97.0,-585.0,785.0,46.0,470,393.23377960055893,-335.58284138856743,
301,14.199419975280762,0.048004865646362305,20.83122172170432,21.198048971295986,102097.75,-628.0,808.0,-56.0,12.5,-48.1875,-13.0,30.0,-15.375,-25.75,103.6875,-37.5625,-87.25,0.6722412109375,-0.170654296875,-0.56658935546875,0.44488525390625,-30.0,20.0,-87.0,-598.0,776.0,37.0,470,408.58702368044715,-204.5009067957348,
302,14.246424674987793,0.04700469970703125,21.274468430449602,21.198301109906986,102097.75,-700.0,762.0,-50.0,12.0625,-47.25,-12.5625,25.25,-12.5625,-35.0625,106.25,-39.125,-88.0,0.677001953125,-0.16845703125,-0.57330322265625,0.4296875,-84.0,-2.0,-70.0,-619.0,759.0,26.0,461,419.0696189443577,-118.99839703433861,
303,14.292428970336914,0.046004295349121094,21.737100686166794,21.20003539138508,102094.75,-685.0,829.0,8.0,14.6875,-47.25,-12.5625,8.5,-14.625,-34.0625,108.375,-40.8125,-87.9375,0.6788330078125,-0.16192626953125,-0.5791015625,0.41912841796875,-48.0,84.0,-15.0,-637.0,744.0,24.0,517,438.6556951554862,-10.049815497823602,
304,14.338433742523193,0.0460047721862793,21.736875382207526,21.201757839033252,102094.75,-651.0,787.0,70.0,15.0,-46.5625,-11.375,-0.0625,-17.5625,-21.8125,109.4375,-41.6875,-87.375,0.67730712890625,-0.15606689453125,-0.5870361328125,0.4151611328125,1.0,56.0,37.0,-652.0,731.0,33.0,592,469.324556124389,125.28918940079873,
305,14.386438369750977,0.0480046272277832,20.831325181528314,21.20052178037999,102094.75,-610.0,805.0,107.0,16.1875,-47.25,-12.1875,6.125,-10.8125,-15.5,110.125,-42.3125,-87.0625,0.6767578125,-0.15216064453125,-0.59149169921875,0.41107177734375,63.0,81.0,63.0,-662.0,722.0,36.0,498,475.0596448995112,124.12525136453978,
306,14.43544340133667,0.04900503158569336,20.4060678596102,21.197824790866175,102094.75,-579.0,793.0,108.0,16.5,-46.5625,-11.75,14.5,-17.1875,-12.5,111.25,-42.9375,-87.0,0.6767578125,-0.1514892578125,-0.5947265625,0.4066162109375,89.0,77.0,70.0,-668.0,716.0,37.0,1011,582.247715919609,536.7576112869987,
307,14.48144793510437,0.046004533767700195,21.736988033603343,21.19953759981442,102094.75,-593.0,756.0,160.0,16.875,-47.25,-11.75,18.375,-18.5625,-4.4375,112.625,-43.3125,-86.9375,0.67584228515625,-0.15521240234375,-0.59954833984375,0.39959716796875,79.0,44.0,117.0,-672.0,712.0,37.0,843,634.3981727356872,656.1248601812068,
308,14.530452966690063,0.04900503158569336,20.4060678596102,21.196861564196663,102094.75,-528.0,780.0,37.0,17.25,-46.5625,-11.375,17.6875,-26.375,9.9375,113.3125,-43.0625,-86.8125,0.67352294921875,-0.16241455078125,-0.60260009765625,0.39605712890625,141.0,65.0,-1.0,-669.0,715.0,39.0,806,668.7185381885498,664.9686294245126,
309,14.577457666397095,0.04700469970703125,21.274468430449602,21.197111805873018,102094.75,-623.0,719.0,127.0,17.6875,-48.375,-11.375,28.625,-34.8125,7.0,114.5,-42.5,-86.5625,0.6690673828125,-0.17510986328125,-0.607666015625,0.39044189453125,39.0,27.0,84.0,-664.0,720.0,42.0,782,691.3748305508399,628.3750188621254,
310,14.624462366104126,0.04700469970703125,21.274468430449602,21.197360438938464,102094.75,-586.0,704.0,72.0,16.1875,-49.5,-10.25,25.6875,-29.375,11.6875,115.625,-42.125,-86.5,0.66552734375,-0.186279296875,-0.61175537109375,0.384765625,71.0,-21.0,28.0,-657.0,725.0,43.0,778,708.699864440672,576.4161923988407,
311,14.67346715927124,0.04900479316711426,20.406167139402843,21.19471810065685,102098.5,-605.0,775.0,58.0,16.5,-48.6875,-9.1875,24.3125,-33.25,21.6875,116.4375,-41.125,-86.4375,0.66021728515625,-0.20233154296875,-0.61492919921875,0.38092041015625,39.0,38.0,13.0,-645.0,737.0,45.0,862,739.3598915525375,586.263681467743,
312,14.722472190856934,0.04900503158569336,20.4060678596102,21.192093009607497,102098.5,-610.0,796.0,40.0,14.0,-49.0625,-9.1875,30.25,-35.75,15.375,117.4375,-40.125,-86.375,0.6541748046875,-0.21942138671875,-0.61871337890625,0.37567138671875,22.0,47.0,-6.0,-632.0,748.0,46.0,867,764.88791324203,573.1962537576712,
313,14.767476558685303,0.04500436782836914,22.220065479280787,21.19522578933183,102098.5,-610.0,818.0,40.0,12.5,-49.75,-7.6875,28.0625,-42.3125,9.5625,119.0625,-39.375,-86.3125,0.647705078125,-0.236572265625,-0.6243896484375,0.36700439453125,12.0,62.0,-7.0,-622.0,755.0,48.0,908,793.5103305936241,585.7554005516816,
314,14.817481756210327,0.050005197525024414,19.9979212060819,21.19118519369162,102098.5,-624.0,857.0,68.0,11.6875,-50.5,-8.0625,23.5,-51.3125,7.25,120.9375,-38.875,-85.625,0.6380615234375,-0.2515869140625,-0.63323974609375,0.35858154296875,-8.0,96.0,10.0,-615.0,761.0,58.0,908,816.4082644748993,560.1865359493083,
315,14.866486549377441,0.04900479316711426,20.406167139402843,21.188597517897808,102098.5,-572.0,769.0,39.0,11.0,-50.875,-7.0,30.6875,-55.4375,7.125,123.1875,-38.3125,-84.875,0.626953125,-0.2685546875,-0.64337158203125,0.34765625,35.0,3.0,-29.0,-608.0,766.0,68.0,656,784.3266115799195,317.2165145427937,
316,14.914491415023804,0.048004865646362305,20.83122172170432,21.187447242195866,102098.5,-558.0,723.0,65.0,11.0,-50.875,-7.0,37.0625,-61.5,17.5625,125.125,-37.5625,-84.4375,0.61676025390625,-0.2857666015625,-0.65118408203125,0.337646484375,39.0,-49.0,-9.0,-598.0,773.0,74.0,1161,859.6612892639357,567.6358864680096,
317,14.969496726989746,0.05500531196594238,18.18006232960136,21.176396627179486,102098.5,-609.0,772.0,113.0,9.5625,-52.375,-6.25,39.9375,-52.125,33.375,126.75,-35.625,-84.4375,0.60162353515625,-0.3145751953125,-0.65643310546875,0.3289794921875,-37.0,-20.0,37.0,-571.0,793.0,76.0,1058,899.3290314111487,598.341114116585,
318,15.016501426696777,0.04700469970703125,21.274468430449602,21.17670361184465,102098.75,-531.0,838.0,20.0,8.875,-52.75,-4.375,36.5625,-50.625,36.25,127.8125,-33.75,-84.75,0.5885009765625,-0.34051513671875,-0.6585693359375,0.32244873046875,13.0,26.0,-53.0,-544.0,812.0,73.0,1077,934.863225128919,629.8671077833052,
319,15.062505960464478,0.046004533767700195,21.736988033603343,21.178414855887837,102098.75,-561.0,1015.0,154.0,8.875,-52.75,-4.375,28.3125,-63.4375,39.3125,128.6875,-32.0,-84.625,0.57421875,-0.36151123046875,-0.66217041015625,0.3179931640625,-41.0,188.0,76.0,-520.0,827.0,77.0,1119,971.6905801031353,663.9968411034046,
320,15.108510732650757,0.0460047721862793,21.736875382207526,21.180115344423275,102098.75,-454.0,863.0,75.0,6.25,-53.875,-4.0,22.375,-49.0625,11.8125,129.8125,-30.5,-84.25,0.5589599609375,-0.38037109375,-0.6673583984375,0.31231689453125,43.0,22.0,-8.0,-498.0,840.0,84.0,894,956.1524640825082,463.6474545597931,
321,15.157515525817871,0.04900479316711426,20.406167139402843,21.177613142024438,102098.75,-368.0,888.0,85.0,4.875,-54.25,-3.6875,9.25,-52.1875,-5.875,131.6875,-30.375,-83.5625,0.54864501953125,-0.388671875,-0.675537109375,0.3026123046875,127.0,47.0,-8.0,-496.0,840.0,94.0,1123,989.5219712660066,507.106711837029,
322,15.204520225524902,0.04700469970703125,21.274468430449602,21.17791256967358,102098.75,-393.0,925.0,148.0,3.0,-54.5,-1.375,-3.125,-50.3125,-3.5,133.75,-30.3125,-82.125,0.5350341796875,-0.3936767578125,-0.68756103515625,0.29327392578125,101.0,87.0,33.0,-495.0,838.0,115.0,1081,1007.8175770128054,483.53122684486766,
323,15.253525257110596,0.04900503158569336,20.4060678596102,21.175432862605323,102098.75,-396.0,938.0,154.0,3.875,-54.5,-1.375,-5.375,-38.5625,1.0,134.8125,-30.0625,-80.9375,0.525146484375,-0.3956298828125,-0.6956787109375,0.2894287109375,95.0,100.0,21.0,-491.0,837.0,132.0,1161,1038.4540616102443,511.8590182109423,
324,15.30253005027771,0.04900479316711426,20.406167139402843,21.172969367514494,102098.75,-348.0,868.0,96.0,4.25,-52.6875,-2.5625,6.25,-24.5625,4.125,135.625,-29.625,-80.0625,0.5155029296875,-0.39947509765625,-0.70196533203125,0.2862548828125,136.0,29.0,-50.0,-485.0,839.0,146.0,1118,1054.3632492881954,474.41632313043397,
325,15.349534749984741,0.04700469970703125,21.274468430449602,21.17328018690098,102098.75,-378.0,862.0,99.0,4.5625,-54.1875,-3.25,10.125,-18.0,10.125,135.5,-29.0,-80.125,0.51129150390625,-0.4046630859375,-0.70184326171875,0.28680419921875,97.0,17.0,-47.0,-476.0,844.0,146.0,1156,1074.6905994305564,466.02377228001785,
326,15.397539615631104,0.048004865646362305,20.83122172170432,21.17221375219291,102092.25,-392.0,831.0,93.0,4.5625,-53.375,-1.0,13.6875,-5.5625,10.0,135.375,-28.125,-80.6875,0.50726318359375,-0.414306640625,-0.6990966796875,0.286865234375,70.0,-21.0,-46.0,-462.0,853.0,139.0,1404,1140.552479544445,647.2157033561591,
327,15.446544408798218,0.04900479316711426,20.406167139402843,21.169783438018904,102092.25,-434.0,798.0,96.0,3.875,-54.5,-1.375,10.875,6.4375,1.4375,135.125,-27.8125,-81.375,0.5087890625,-0.41864013671875,-0.6954345703125,0.28680419921875,23.0,-59.0,-32.0,-458.0,857.0,129.0,1493,1211.041983635556,805.4566830962938,
328,15.49454927444458,0.048004865646362305,20.83122172170432,21.168734513689657,102092.25,-393.0,696.0,4.0,2.75,-53.75,-0.5625,-1.625,7.3125,-15.0,135.25,-28.375,-81.8125,0.5140380859375,-0.41656494140625,-0.6934814453125,0.28515625,47.0,-82.0,-91.0,-466.0,854.0,122.0,1198,1208.4335869084448,633.4981283649103,
329,15.541553974151611,0.04700469970703125,21.274468430449602,21.169054300952528,102092.25,-539.0,1090.0,153.0,3.5,-53.75,0.0625,-20.875,-5.125,-2.1875,135.375,-28.6875,-81.25,0.5137939453125,-0.4117431640625,-0.69635009765625,0.28564453125,-103.0,253.0,24.0,-471.0,850.0,130.0,1105,1187.7468695267557,418.77871951865285,
330,15.58655834197998,0.04500436782836914,22.220065479280787,21.172088973047764,102092.25,-559.0,1030.0,75.0,3.875,-53.75,1.25,-6.125,-9.8125,7.0,135.1875,-28.375,-80.25,0.50823974609375,-0.40924072265625,-0.70068359375,0.28851318359375,-71.0,159.0,-99.0,-466.0,850.0,145.0,1081,1166.3974956214047,240.14607839121248,
331,15.635563611984253,0.04900527000427246,20.405968580783583,21.16968778447469,102092.25,-516.0,986.0,103.0,3.875,-54.5625,-1.375,13.625,-13.3125,19.5625,135.0,-27.625,-80.4375,0.50372314453125,-0.415771484375,-0.69970703125,0.28955078125,-79.0,131.0,-24.0,-455.0,856.0,143.0,1025,1138.1179964971238,76.70274859089565,
332,15.682568073272705,0.04700446128845215,21.27457633996277,21.170002160922667,102092.25,-577.0,949.0,125.0,3.0625,-54.5,-1.375,13.5625,-14.5,20.75,134.8125,-26.9375,-80.6875,0.50018310546875,-0.42169189453125,-0.6982421875,0.29052734375,-132.0,86.0,-15.0,-444.0,862.0,141.0,1020,1114.494397197699,-39.154214471344126,
333,15.723572254180908,0.041004180908203125,24.387757000651224,21.178393472987988,102092.25,-525.0,878.0,76.0,1.5625,-54.875,1.25,7.625,-6.9375,7.125,134.8125,-26.25,-81.0,0.49578857421875,-0.4290771484375,-0.69720458984375,0.289794921875,-91.0,10.0,-60.0,-434.0,868.0,137.0,1011,1093.7955177581593,-132.2832199685294,
334,15.77057695388794,0.04700469970703125,21.274468430449602,21.178679827414847,102095.25,-449.0,823.0,-5.0,1.25,-56.5,0.875,-0.5625,-8.9375,3.625,135.0,-26.0,-80.9375,0.49322509765625,-0.431396484375,-0.69793701171875,0.2890625,-19.0,-46.0,-133.0,-431.0,869.0,137.0,1058,1086.6364142065277,-136.28780047472512,
335,15.818581819534302,0.048004865646362305,20.83122172170432,21.177625391570178,102095.25,-440.0,847.0,-12.0,1.25,-56.5,0.875,-0.0625,-14.625,11.25,135.0,-25.625,-80.6875,0.48895263671875,-0.4337158203125,-0.69940185546875,0.289306640625,-15.0,-24.0,-154.0,-424.0,872.0,142.0,1039,1077.109131365222,-148.72322863430523,
336,15.864586114883423,0.046004295349121094,21.737100686166794,21.179247763972885,102095.25,-435.0,908.0,31.0,1.5625,-55.25,2.375,9.5,-20.125,15.5,135.3125,-24.8125,-80.625,0.4808349609375,-0.44146728515625,-0.70074462890625,0.28778076171875,-23.0,30.0,-113.0,-411.0,878.0,144.0,1067,1075.0873050921778,-127.76831116086457,
337,15.914591312408447,0.050005197525024414,19.9979212060819,21.175535920752452,102095.25,-275.0,840.0,-13.0,0.1875,-55.6875,0.875,22.5625,-21.625,17.75,135.625,-23.8125,-81.0,0.4736328125,-0.45233154296875,-0.69970703125,0.28533935546875,121.0,-45.0,-152.0,-396.0,885.0,139.0,1006,1061.2698440737422,-157.47874827164813,
338,15.965596437454224,0.05100512504577637,19.60587292164296,21.17052133467902,102095.25,-466.0,886.0,140.0,-0.5625,-55.6875,0.375,17.375,-41.375,17.75,136.1875,-22.625,-81.4375,0.46221923828125,-0.466552734375,-0.69976806640625,0.281005859375,-89.0,-8.0,6.0,-377.0,895.0,134.0,983,1045.6158752589938,-187.3649432775823,
339,16.010601043701172,0.04500460624694824,22.219947765187033,21.173471194160324,102095.25,-320.0,930.0,82.0,-0.875,-56.75,2.0,1.25,-19.4375,-13.5625,137.625,-22.5625,-81.25,0.455322265625,-0.4718017578125,-0.7041015625,0.27264404296875,56.0,35.0,-54.0,-376.0,894.0,137.0,978,1032.092700207195,-209.98880327615547,
340,16.057605504989624,0.04700446128845215,21.27457633996277,21.173767153163084,102095.25,-260.0,969.0,92.0,-1.25,-56.0625,2.75,-15.875,-10.4375,-3.1875,138.25,-22.75,-80.375,0.45159912109375,-0.46844482421875,-0.7095947265625,0.27032470703125,125.0,77.0,-51.0,-380.0,891.0,150.0,1236,1072.8741601657562,5.5306140077841235,
341,16.10761070251465,0.050005197525024414,19.9979212060819,21.17011680365261,102095.25,-125.0,917.0,14.0,0.1875,-56.75,2.375,-23.25,-2.5625,7.3125,137.75,-22.5,-79.25,0.4468994140625,-0.463134765625,-0.7139892578125,0.27569580078125,240.0,19.0,-159.0,-375.0,890.0,168.0,1179,1094.099328132605,89.31633852360672,
342,16.15461540222168,0.04700469970703125,21.274468430449602,21.170420433095927,102096.0,-256.0,897.0,12.0,0.1875,-57.875,3.5,-14.125,-2.0625,31.875,136.5,-21.1875,-78.4375,0.43804931640625,-0.4637451171875,-0.71533203125,0.28521728515625,94.0,-32.0,-177.0,-355.0,895.0,182.0,974,1070.0794625060842,-30.748903776126582,
343,16.202620267868042,0.048004865646362305,20.83122172170432,21.169415460548365,102096.0,-257.0,831.0,31.0,0.1875,-56.6875,2.0,7.0625,8.8125,36.5625,134.9375,-19.875,-78.75,0.4332275390625,-0.47076416015625,-0.7088623046875,0.296875,66.0,-50.0,-124.0,-328.0,906.0,177.0,941,1044.2635700048675,-132.15443914820705,
344,16.250624895095825,0.0480046272277832,20.831325181528314,21.168416736012016,102096.0,-291.0,887.0,36.0,-1.6875,-57.5,2.0,8.625,19.375,43.75,133.125,-18.4375,-79.375,0.430908203125,-0.4779052734375,-0.700927734375,0.30755615234375,12.0,-29.0,-132.0,-304.0,916.0,168.0,1034,1042.210856003894,-114.2757018903568,
345,16.29962992668152,0.04900503158569336,20.4060678596102,21.16612472503168,102096.0,-334.0,847.0,-235.0,-3.5,-57.5,3.5,5.5625,22.1875,41.8125,130.625,-16.5,-80.125,0.42779541015625,-0.48583984375,-0.69110107421875,0.32147216796875,-60.0,-80.0,-137.0,-273.0,928.0,158.0,969,1027.5686848031153,-151.17838933930932,
346,16.349634885787964,0.05000495910644531,19.998016554144257,21.162552094711483,102096.0,-316.0,992.0,78.0,-5.6875,-57.5,3.1875,-6.1875,26.0,33.0625,128.125,-15.0,-80.5,0.42681884765625,-0.48834228515625,-0.68304443359375,0.3359375,-66.0,57.0,-77.0,-250.0,935.0,155.0,1049,1031.8549478424923,-103.79935962807193,
347,16.396639585494995,0.04700469970703125,21.274468430449602,21.162872928363175,102096.0,-230.0,871.0,-50.0,-7.5625,-56.6875,4.25,-6.25,26.375,34.8125,125.625,-13.5625,-80.5625,0.425048828125,-0.48980712890625,-0.67730712890625,0.34747314453125,-4.0,-69.0,-206.0,-226.0,941.0,155.0,1011,1027.6839582739938,-100.78660488220874,
348,16.44764471054077,0.05100512504577637,19.60587292164296,21.158044578685352,102096.0,-154.0,1021.0,60.0,-9.0625,-56.6875,2.75,3.125,26.6875,40.0,122.5625,-11.75,-80.8125,0.42340087890625,-0.49285888671875,-0.66876220703125,0.3614501953125,33.0,57.0,-89.0,-200.0,948.0,151.0,903,1002.7471666191951,-178.41079755726076,
349,16.494649410247803,0.04700469970703125,21.274468430449602,21.15837635101072,102096.0,-89.0,1059.0,49.0,-10.5625,-56.375,3.5,12.3125,16.0625,55.0,120.4375,-10.0,-81.4375,0.419189453125,-0.50128173828125,-0.6571044921875,0.375732421875,81.0,104.0,-93.0,-170.0,954.0,143.0,955,993.1977332953561,-183.360461601148,
350,16.542654275894165,0.048004865646362305,20.83122172170432,21.15742698618912,102101.75,-109.0,1048.0,130.0,-12.375,-55.5625,5.5,18.75,15.8125,57.625,117.75,-7.3125,-82.4375,0.41070556640625,-0.51629638671875,-0.64337158203125,0.388427734375,15.0,84.0,3.0,-124.0,964.0,127.0,974,989.3581866362849,-162.68485883410656,
351,16.588658571243286,0.046004295349121094,21.737100686166794,21.159034559217723,102101.75,-36.0,992.0,57.0,-14.875,-55.1875,5.875,20.625,9.5,29.375,115.75,-5.3125,-83.5625,0.40594482421875,-0.52862548828125,-0.63140869140625,0.3963623046875,54.0,22.0,-52.0,-91.0,970.0,109.0,997,990.8865493090279,-123.50345240680649,
352,16.633663177490234,0.04500460624694824,22.219947765187033,21.161905002161493,102101.75,-59.0,980.0,176.0,-17.5,-53.6875,6.5625,18.1875,-8.5625,20.4375,115.625,-4.5,-84.3125,0.40130615234375,-0.538330078125,-0.62725830078125,0.39459228515625,17.0,8.0,79.0,-77.0,972.0,96.0,931,978.9092394472225,-152.02980182480053,
353,16.679667711257935,0.046004533767700195,21.736988033603343,21.16349115047075,102101.75,-55.0,968.0,110.0,-18.5625,-54.0625,7.75,-0.625,-7.3125,21.9375,115.5,-3.4375,-84.625,0.3931884765625,-0.546875,-0.62530517578125,0.39410400390625,3.0,-6.0,19.0,-59.0,974.0,90.0,931,969.3273915577781,-163.27994404237234,
354,16.726672410964966,0.04700469970703125,21.274468430449602,21.163803014874592,102101.75,-75.0,1071.0,115.0,-18.5625,-52.875,8.5,-11.125,-14.0625,27.625,115.5625,-2.125,-84.25,0.37872314453125,-0.55364990234375,-0.6275634765625,0.39520263671875,-38.0,96.0,17.0,-36.0,975.0,98.0,955,966.4619132462226,-142.81626080936311,
355,16.774677276611328,0.048004865646362305,20.83122172170432,21.16285125168822,102101.75,10.0,998.0,23.0,-20.0625,-52.1875,8.875,-2.0625,-24.9375,10.9375,116.125,-1.125,-83.875,0.36456298828125,-0.56011962890625,-0.6314697265625,0.3931884765625,29.0,23.0,-80.0,-21.0,974.0,104.0,955,964.1695305969781,-123.80363489497041,
356,16.82268214225769,0.048004865646362305,20.83122172170432,21.161904920366222,102101.75,12.0,957.0,-48.0,-20.5,-50.6875,9.25,8.75,-23.25,11.3125,117.25,-0.625,-84.0,0.35498046875,-0.567626953125,-0.6343994140625,0.386474609375,23.0,-17.0,-150.0,-11.0,975.0,101.0,927,956.7356244775825,-130.0143772422692,
357,16.87468719482422,0.05200505256652832,19.228900859598856,21.155947714959634,102101.75,-26.0,955.0,16.0,-19.6875,-50.0,10.5,4.6875,-33.75,20.5,117.375,0.3125,-84.375,0.3453369140625,-0.576171875,-0.63299560546875,0.3848876953125,-33.0,-20.0,-79.0,6.0,975.0,95.0,880,941.3884995820661,-163.03317041296884,
358,16.919691801071167,0.04500460624694824,22.219947765187033,21.15877784353823,102100.0,-123.0,1062.0,82.0,-20.5625,-51.75,11.6875,9.625,-8.0,7.3125,117.625,1.0625,-84.8125,0.33795166015625,-0.58367919921875,-0.63177490234375,0.382080078125,-141.0,86.0,-5.0,18.0,976.0,88.0,913,935.7107996656529,-155.65817544419667,
359,16.962696075439453,0.04300427436828613,23.25350246433779,21.16408844463125,102100.0,-36.0,854.0,-307.0,-20.5625,-51.75,11.6875,-7.375,56.9375,-3.125,116.5625,0.875,-84.8125,0.34515380859375,-0.57977294921875,-0.6279296875,0.3878173828125,-52.0,-122.0,-395.0,15.0,976.0,87.0,913,931.1686397325224,-145.65076579505066,
360,17.010700702667236,0.0480046272277832,20.831325181528314,21.16314937829415,102100.0,-28.0,839.0,-270.0,-20.5625,-51.0625,10.875,-23.9375,5.375,9.4375,116.3125,0.9375,-83.6875,0.3421630859375,-0.57269287109375,-0.633056640625,0.3927001953125,-45.0,-135.0,-377.0,16.0,974.0,107.0,843,913.5349117860179,-189.9873968392881,
361,17.0587055683136,0.048004865646362305,20.83122172170432,21.16221530140918,102100.0,18.0,1040.0,-261.0,-20.5625,-49.875,9.6875,-15.5,49.0,17.1875,114.4375,1.625,-82.8125,0.342041015625,-0.5662841796875,-0.6304931640625,0.406005859375,-9.0,67.0,-383.0,27.0,972.0,122.0,792,889.2279294288144,-253.2587452451229,
362,17.10571026802063,0.04700469970703125,21.274468430449602,21.16252376124739,102100.0,117.0,1148.0,-219.0,-21.25,-49.875,9.25,-21.5625,43.1875,0.5,112.875,1.5625,-81.8125,0.3463134765625,-0.555908203125,-0.62969970703125,0.417724609375,90.0,190.0,-364.0,28.0,970.0,135.0,773,865.9823435430516,-301.51449281089145,
363,17.15171504020691,0.0460047721862793,21.736875382207526,21.16406430196971,102100.0,181.0,1049.0,-222.0,-22.0,-49.5625,8.5,-8.0625,52.0625,-1.0,111.875,1.25,-81.1875,0.35211181640625,-0.547607421875,-0.62884521484375,0.42510986328125,159.0,80.0,-371.0,22.0,968.0,149.0,712,835.1858748344413,-375.09539475493625,
364,17.199719667434692,0.0480046272277832,20.831325181528314,21.16313562302902,102100.0,71.0,1008.0,-131.0,-21.5625,-49.5625,6.1875,10.25,39.375,1.5625,110.625,1.0,-81.3125,0.36090087890625,-0.5428466796875,-0.62371826171875,0.4312744140625,54.0,39.0,-278.0,17.0,969.0,147.0,726,813.3486998675531,-391.05577436018433,
365,17.246724605560303,0.04700493812561035,21.274360522031113,21.16343875997909,102100.0,50.0,991.0,-18.0,-21.5625,-49.1875,3.75,22.125,45.4375,-6.0,109.25,0.5,-82.1875,0.375244140625,-0.5400390625,-0.61444091796875,0.43597412109375,41.0,20.0,-150.0,9.0,971.0,132.0,698,790.2789598940426,-411.00341255734264,
366,17.291728973388672,0.04500436782836914,22.220065479280787,21.166188792529677,102096.0,86.0,899.0,-30.0,-21.5625,-48.375,3.0625,31.5,35.4375,-9.875,108.5,0.0,-83.3125,0.387939453125,-0.539794921875,-0.6063232421875,0.43646240234375,85.0,-74.0,-144.0,0.0,974.0,113.0,665,765.2231679152342,-440.1509977267464,
367,17.339733839035034,0.048004865646362305,20.83122172170432,21.16526143981595,102096.0,23.0,917.0,7.0,-21.6875,-47.25,3.0625,34.4375,22.4375,-16.5625,108.25,-0.75,-85.0,0.403076171875,-0.5423583984375,-0.597412109375,0.431884765625,55.0,-44.0,-89.0,-12.0,976.0,85.0,675,747.1785343321874,-427.29915079246905,
368,17.388738870620728,0.04900503158569336,20.4060678596102,21.163121876639202,102096.0,111.0,937.0,40.0,-20.6875,-47.6875,2.5625,24.5625,22.3125,-0.8125,107.875,-1.3125,-86.375,0.41558837890625,-0.544189453125,-0.58935546875,0.42877197265625,112.0,-59.0,-40.0,-22.0,978.0,61.0,646,726.9428274657499,-424.42556213471585,
369,17.43674349784851,0.0480046272277832,20.831325181528314,21.162208416125996,102096.0,36.0,883.0,11.0,-21.0,-46.5,3.75,17.5,17.9375,-4.125,106.9375,-1.375,-87.4375,0.42498779296875,-0.545166015625,-0.58074951171875,0.4300537109375,53.0,-87.0,-43.0,-24.0,979.0,43.0,667,714.9542619726,-389.487990957344,
370,17.487748622894287,0.05100512504577637,19.60587292164296,21.15766917621461,102096.0,-20.0,806.0,-52.0,-20.375,-46.5,2.6875,13.875,20.1875,-8.4375,106.5,-1.75,-88.1875,0.43353271484375,-0.54473876953125,-0.57537841796875,0.42926025390625,11.0,-164.0,-67.0,-30.0,979.0,30.0,625,696.96340957808,-382.135665925674,
371,17.53475332260132,0.04700469970703125,21.274468430449602,21.15798227522264,102096.0,19.0,1049.0,37.0,-20.375,-45.5,3.75,9.9375,19.125,-10.1875,106.1875,-2.0625,-88.5625,0.4390869140625,-0.54296875,-0.57257080078125,0.4295654296875,54.0,70.0,12.0,-35.0,979.0,24.0,684,694.3707276624641,-316.7401186533329,
372,17.580758094787598,0.0460047721862793,21.736875382207526,21.15949710441052,102096.0,1.0,896.0,0.0,-19.375,-45.0625,3.0625,14.375,7.1875,-13.625,106.375,-2.625,-89.1875,0.446533203125,-0.54180908203125,-0.57012939453125,0.4266357421875,47.0,-83.0,-13.0,-45.0,979.0,13.0,731,701.6965821299714,-221.54385779698757,
373,17.625762224197388,0.04500412940979004,22.22018319462177,21.162205370496256,102096.0,-8.0,1022.0,52.0,-19.6875,-45.75,4.1875,9.5,-7.875,-10.4375,107.125,-3.3125,-89.75,0.45147705078125,-0.54254150390625,-0.5699462890625,0.42071533203125,48.0,43.0,48.0,-56.0,979.0,3.0,768,714.9572657039771,-118.30412257752624,
374,17.67376708984375,0.048004865646362305,20.83122172170432,21.16130636433019,102100.5,8.0,937.0,20.0,-19.0,-45.0,5.875,3.125,-5.1875,-2.5,107.625,-3.5625,-90.0,0.4527587890625,-0.54327392578125,-0.57061767578125,0.41741943359375,70.0,-40.0,20.0,-61.0,978.0,0.0,857,743.3658125631816,23.713649621082325,
