Index,Time,Difference,Hz,AveHz,0x6104 Pressure,0x6104 Acceleration-X,0x6104 Acceleration-Y,0x6104 Acceleration-Z,0x6104 Magnetic-X,0x6104 Magnetic-Y,0x6104 Magnetic-Z,0x6104 Angular-Vel-X,0x6104 Angular-Vel-Y,0x6104 Angular-Vel-Z,0x6104 Heading,0x6104 Roll,0x6104 Pitch,0x6104 Quaternion-X,0x6104 Quaternion-Y,0x6104 Quaternion-Z,0x6104 Quaternion-W,0x6104 Linear-Acceleration-X,0x6104 Linear-Acceleration-Y,0x6104 Linear-Acceleration-Z,0x6104 Gravity-X,0x6104 Gravity-Y,0x6104 Gravity-Z,0x6104 Range,0x6104 Smoothed Range,0x6104 Velocity,
0,0.0010001659393310547,0.0010001659393310547,999.8340882002384,0.0,102390.25,-383.0,-40.0,-863.0,8.1875,19.0625,45.0625,6.8125,4.1875,15.75,329.625,-22.625,174.8125,-0.2562255859375,0.9454345703125,0.01068115234375,0.200927734375,1.0,38.0,29.0,-377.0,-81.0,-901.0,950,923.6,1319.7809964243193,
1,0.05000495910644531,0.04900479316711426,20.406167139402843,19.998016554144257,102390.25,-379.0,-65.0,-903.0,6.25,18.375,45.875,11.125,3.6875,13.5,329.8125,-22.5,174.75,-0.25372314453125,0.94635009765625,0.00848388671875,0.199951171875,-6.0,17.0,-1.0,-375.0,-83.0,-902.0,839,906.6800000000001,986.7703275397165,
2,0.09800982475280762,0.048004865646362305,20.83122172170432,20.40611749938577,102390.25,-393.0,-81.0,-896.0,9.0,19.875,45.75,10.125,4.375,14.375,330.5625,-22.375,174.4375,-0.24859619140625,0.94775390625,0.00567626953125,0.1998291015625,-19.0,4.0,5.0,-374.0,-86.0,-902.0,857,896.744,748.0204582264023,
3,0.14901471138000488,0.051004886627197266,19.605964567849295,20.13224044939865,102390.25,-386.0,-66.0,-923.0,8.5625,19.5,45.75,4.25,4.4375,18.4375,331.375,-22.25,174.5,-0.2421875,0.94964599609375,0.00433349609375,0.19866943359375,-14.0,20.0,-20.0,-372.0,-86.0,-903.0,898,896.9952000000001,599.4013702410108,
4,0.19601941108703613,0.04700469970703125,21.274468430449602,20.40614231936412,102392.25,-384.0,-47.0,-923.0,8.5625,19.5,45.375,0.9375,2.8125,18.6875,332.1875,-22.1875,174.875,-0.2354736328125,0.95159912109375,0.00543212890625,0.19744873046875,-13.0,33.0,-19.0,-371.0,-81.0,-904.0,936,904.7961600000001,512.7133516422489,
5,0.2470245361328125,0.05100512504577637,19.60587292164296,20.24090431774662,102392.25,-368.0,-38.0,-910.0,9.375,20.5625,45.375,1.6875,0.375,13.125,333.0,-22.1875,175.25,-0.228759765625,0.953369140625,0.00732421875,0.19671630859375,2.0,36.0,-5.0,-371.0,-74.0,-904.0,875,898.8369280000002,386.8034922532818,
6,0.2970294952392578,0.05000495910644531,19.998016554144257,20.20001412710542,102392.25,-383.0,-53.0,-895.0,8.5625,19.875,46.1875,4.6875,-0.3125,9.8125,333.3125,-22.25,175.375,-0.22576904296875,0.95404052734375,0.0079345703125,0.197021484375,-11.0,18.0,8.0,-372.0,-72.0,-904.0,834,885.8695424000002,257.5783954240713,
7,0.3430342674255371,0.0460047721862793,21.736875382207526,20.406124590801994,102392.25,-393.0,-56.0,-890.0,8.5625,21.0,45.375,4.625,4.0,12.125,333.875,-22.3125,175.4375,-0.22113037109375,0.955078125,0.0072021484375,0.197265625,-21.0,15.0,13.0,-372.0,-72.0,-904.0,857,880.0956339200002,180.9613705196506,
8,0.3910388946533203,0.0480046272277832,20.831325181528314,20.45832296833921,102392.25,-382.0,-62.0,-939.0,9.25,19.875,45.0625,4.375,3.3125,13.875,334.4375,-22.1875,175.5,-0.21685791015625,0.95623779296875,0.006591796875,0.19622802734375,-11.0,8.0,-34.0,-370.0,-71.0,-905.0,834,870.8765071360001,106.35977083027186,
9,0.43804383277893066,0.04700493812561035,21.274360522031113,20.545889078963626,102392.25,-374.0,-65.0,-958.0,10.0625,19.875,45.75,1.5,2.5625,10.875,335.0625,-22.125,175.5625,-0.21173095703125,0.95758056640625,0.0062255859375,0.1954345703125,-5.0,4.0,-53.0,-369.0,-69.0,-905.0,862,869.1012057088001,77.53413614471157,
10,0.4850485324859619,0.04700469970703125,21.274468430449602,20.61649367074297,102392.25,-380.0,-66.0,-924.0,9.6875,20.5625,45.375,-0.125,-0.5,8.9375,335.5,-22.125,175.75,-0.2078857421875,0.95843505859375,0.00689697265625,0.1951904296875,-10.0,0.0,-18.0,-369.0,-66.0,-905.0,801,855.4809645670401,4.074630878672679,
11,0.5350534915924072,0.05000495910644531,19.998016554144257,20.558692117422112,102392.25,-392.0,-69.0,-920.0,10.375,19.5,45.0,-1.5,-0.1875,8.9375,335.875,-22.1875,176.0,-0.2044677734375,0.95916748046875,0.00811767578125,0.1951904296875,-21.0,-6.0,-14.0,-370.0,-63.0,-905.0,797,843.7847716536321,-43.52042719762155,
12,0.5820581912994385,0.04700469970703125,21.274468430449602,20.616495359699574,102393.25,-374.0,-62.0,-914.0,10.375,19.875,46.1875,-0.375,-2.0625,10.0,336.3125,-22.25,176.1875,-0.20074462890625,0.9598388671875,0.0093994140625,0.19580078125,-2.0,-2.0,-9.0,-372.0,-59.0,-905.0,717,818.4278173229058,-142.7074866383753,
13,0.6290628910064697,0.04700469970703125,21.274468430449602,20.665660279532048,102393.25,-379.0,-66.0,-925.0,10.0625,20.25,45.0,0.0625,-2.5625,8.3125,336.6875,-22.375,176.375,-0.197998046875,0.96026611328125,0.0101318359375,0.19647216796875,-5.0,-9.0,-20.0,-373.0,-57.0,-904.0,829,820.5422538583246,-105.16928664650892,
14,0.676067590713501,0.04700469970703125,21.274468430449602,20.707988657206347,102393.25,-375.0,-66.0,-918.0,9.6875,19.5,45.75,-0.3125,-2.5625,12.625,336.9375,-22.5625,176.5625,-0.19549560546875,0.96051025390625,0.01153564453125,0.19757080078125,1.0,-12.0,-14.0,-376.0,-54.0,-903.0,978,852.0338030866598,49.85776465962623,
15,0.7230722904205322,0.04700469970703125,21.274468430449602,20.744813760289635,102393.25,-361.0,-61.0,-923.0,11.875,19.5,45.375,-1.375,-2.125,12.6875,337.625,-22.625,176.8125,-0.19012451171875,0.9615478515625,0.01287841796875,0.19781494140625,16.0,-11.0,-19.0,-377.0,-49.0,-903.0,988,879.2270424693279,155.5905542813474,
16,0.7720773220062256,0.04900503158569336,20.4060678596102,20.723312994641987,102393.25,-360.0,-84.0,-884.0,10.75,19.875,44.5625,-1.375,-2.4375,9.875,338.125,-22.75,177.0625,-0.185791015625,0.9622802734375,0.01416015625,0.1982421875,18.0,-38.0,18.0,-379.0,-45.0,-903.0,913,885.9816339754624,152.03937395270333,
17,0.8180816173553467,0.046004295349121094,21.737100686166794,20.780322695621432,102393.25,-391.0,-78.0,-901.0,11.875,19.0625,45.875,-1.9375,0.5625,13.8125,338.5625,-22.8125,177.375,-0.18206787109375,0.962890625,0.015625,0.198486328125,-11.0,-37.0,0.0,-380.0,-41.0,-902.0,778,864.38530718037,27.743193162905555,
18,0.8630862236022949,0.04500460624694824,22.219947765187033,20.8553902353727,102393.25,-378.0,-59.0,-911.0,11.875,19.5,44.1875,-2.625,1.625,17.25,339.375,-22.75,177.6875,-0.17535400390625,0.96429443359375,0.0172119140625,0.19775390625,0.0,-23.0,-8.0,-379.0,-35.0,-903.0,843,860.108245744296,3.1873381907126443,
19,0.9100909233093262,0.04700469970703125,21.274468430449602,20.877034935049217,102393.25,-384.0,-38.0,-935.0,11.1875,18.375,45.375,-4.4375,1.25,15.75,339.9375,-22.6875,178.1875,-0.1702880859375,0.96533203125,0.0198974609375,0.19671630859375,-6.0,-10.0,-37.0,-379.0,-28.0,-904.0,857,859.4865965954368,-0.09518048587409078,
20,0.9580957889556885,0.048004865646362305,20.83122172170432,20.87473948904392,102385.75,-371.0,-20.0,-956.0,12.25,18.75,46.1875,-7.1875,1.0,16.0625,340.5625,-22.75,178.6875,-0.1654052734375,0.96624755859375,0.0228271484375,0.19622802734375,-5.0,7.0,-45.0,-379.0,-20.0,-904.0,825,852.5892772763495,-28.81206199295961,
21,1.0071005821228027,0.04900479316711426,20.406167139402843,20.851939094043065,102385.75,-387.0,-7.0,-945.0,12.25,18.75,46.1875,-6.75,-3.125,12.25,341.125,-22.75,179.3125,-0.160400390625,0.967041015625,0.02679443359375,0.1959228515625,-7.0,3.0,-41.0,-380.0,-10.0,-903.0,792,840.4714218210796,-72.50544635264025,
22,1.057105541229248,0.05000495910644531,19.998016554144257,20.811545434164927,102385.75,-400.0,-2.0,-924.0,12.6875,19.5,45.375,-7.6875,-3.5625,13.0625,341.6875,-22.9375,179.875,-0.155517578125,0.967529296875,0.03106689453125,0.19683837890625,-17.0,-1.0,-22.0,-382.0,-1.0,-902.0,651,802.5771374568637,-209.56646228672003,
23,1.1081106662750244,0.05100512504577637,19.60587292164296,20.756049643774098,102385.75,-395.0,-11.0,-888.0,13.0625,18.375,45.375,-4.4375,-4.6875,12.75,342.3125,-23.125,-179.5,-0.15032958984375,0.968017578125,0.0347900390625,0.1978759765625,-9.0,-19.0,12.0,-385.0,7.0,-901.0,1118,865.661709965491,79.71245255468745,
24,1.1561155319213867,0.048004865646362305,20.83122172170432,20.75917098018189,102385.75,-420.0,-7.0,-883.0,13.0625,18.0,45.75,0.125,-4.0625,11.9375,342.875,-23.375,-179.1875,-0.14556884765625,0.96832275390625,0.03662109375,0.199462890625,-31.0,-21.0,15.0,-389.0,12.0,-899.0,908,874.1293679723929,99.04829432481739,
25,1.2061207294464111,0.050005197525024414,19.9979212060819,20.727609922992183,102385.75,-416.0,1.0,-887.0,13.0625,18.0,45.375,1.0625,-3.0625,13.8125,343.5,-23.625,-179.0,-0.14013671875,0.96868896484375,0.0372314453125,0.20166015625,-26.0,-8.0,12.0,-393.0,15.0,-898.0,857,870.7034943779144,65.53656541897838,
26,1.2551255226135254,0.04900479316711426,20.406167139402843,20.715059594884714,102385.75,-412.0,35.0,-901.0,12.6875,17.25,45.75,-0.1875,-1.0,12.75,344.0625,-23.6875,-178.75,-0.135498046875,0.9691162109375,0.03857421875,0.20233154296875,-8.0,14.0,-7.0,-394.0,19.0,-897.0,736,843.7627955023315,-57.522028486310376,
27,1.3041303157806396,0.04900479316711426,20.406167139402843,20.703452464286947,102385.75,-416.0,37.0,-905.0,13.75,17.25,47.0,-0.125,-1.875,7.0625,344.4375,-23.75,-178.5,-0.13226318359375,0.96942138671875,0.03973388671875,0.20281982421875,-20.0,16.0,1.0,-395.0,22.0,-896.0,665,808.0102364018653,-191.93216212214668,
28,1.351135015487671,0.04700469970703125,21.274468430449602,20.723317565634876,102391.25,-426.0,29.0,-918.0,14.5625,16.875,46.1875,0.125,-1.3125,6.0625,344.6875,-23.875,-178.375,-0.12982177734375,0.9696044921875,0.04052734375,0.20355224609375,-22.0,1.0,-19.0,-397.0,25.0,-896.0,630,772.4081891214923,-305.0286558828511,
29,1.3981399536132812,0.04700493812561035,21.274360522031113,20.741843422079373,102391.25,-424.0,16.0,-898.0,14.1875,16.0625,44.1875,1.5625,-0.6875,6.0625,344.9375,-23.9375,-178.3125,-0.127685546875,0.96978759765625,0.04071044921875,0.20391845703125,-26.0,-6.0,4.0,-398.0,26.0,-895.0,615,740.9265512971939,-377.9732672859082,
30,1.4441442489624023,0.046004295349121094,21.737100686166794,20.77354808673343,102391.25,-429.0,28.0,-915.0,14.5625,15.75,45.0,0.75,2.0625,6.625,345.25,-23.9375,-178.1875,-0.12506103515625,0.9700927734375,0.040771484375,0.2041015625,-26.0,0.0,-21.0,-398.0,27.0,-895.0,634,719.5412410377551,-395.3495422915941,
31,1.4911489486694336,0.04700469970703125,21.274468430449602,20.789338333814065,102391.25,-417.0,35.0,-928.0,14.5625,16.0625,45.375,1.1875,0.3125,4.3125,345.5625,-23.875,-178.125,-0.122802734375,0.970458984375,0.04083251953125,0.20367431640625,-15.0,7.0,-32.0,-397.0,28.0,-896.0,573,690.2329928302041,-440.98311408194,
32,1.5381536483764648,0.04700469970703125,21.274468430449602,20.804163507186875,102391.25,-410.0,35.0,-923.0,13.75,16.0625,46.1875,1.375,0.125,1.125,345.375,-23.875,-178.125,-0.1241455078125,0.97027587890625,0.04107666015625,0.20355224609375,-13.0,7.0,-27.0,-397.0,28.0,-896.0,573,666.7863942641634,-452.5492754644838,
33,1.585158348083496,0.04700469970703125,21.274468430449602,20.818109458842386,102391.25,-423.0,22.0,-916.0,14.5625,17.25,46.1875,2.375,-1.4375,-0.6875,345.375,-23.875,-178.25,-0.124267578125,0.97021484375,0.040283203125,0.20391845703125,-26.0,-4.0,-20.0,-397.0,26.0,-895.0,573,648.0291154113307,-441.8496477307327,
34,1.6351633071899414,0.05000495910644531,19.998016554144257,20.79303018267309,102391.25,-422.0,32.0,-902.0,13.75,16.875,45.375,2.5,-1.125,1.5,345.3125,-24.0,-178.375,-0.1246337890625,0.97003173828125,0.03955078125,0.2047119140625,-22.0,7.0,-7.0,-399.0,25.0,-895.0,526,623.6232923290646,-451.09332898792104,
35,1.6821680068969727,0.04700469970703125,21.274468430449602,20.806482977026228,102391.25,-422.0,28.0,-920.0,14.1875,16.875,45.375,1.3125,-1.4375,-0.25,345.3125,-24.0625,-178.4375,-0.12469482421875,0.969970703125,0.0390625,0.20526123046875,-22.0,4.0,-25.0,-400.0,24.0,-895.0,545,607.8986338632517,-427.78141321244465,
36,1.730172872543335,0.048004865646362305,20.83122172170432,20.807169370931355,102387.75,-400.0,32.0,-897.0,14.875,16.0625,45.75,0.8125,-1.125,-0.4375,345.3125,-24.125,-178.4375,-0.124755859375,0.96978759765625,0.038818359375,0.2060546875,1.0,8.0,-3.0,-401.0,23.0,-894.0,615,609.3189070906014,-336.3079252690911,
37,1.7781777381896973,0.048004865646362305,20.83122172170432,20.807818704146218,102387.75,-416.0,23.0,-907.0,15.1875,17.5625,45.375,0.5,-1.9375,-0.75,345.25,-24.25,-178.5,-0.1251220703125,0.96954345703125,0.03875732421875,0.2069091796875,-13.0,0.0,-13.0,-402.0,22.0,-893.0,578,603.0551256724812,-295.1427841227039,
38,1.8241822719573975,0.046004533767700195,21.736988033603343,20.831251670495053,102387.75,-406.0,21.0,-902.0,14.875,17.25,45.375,-0.5,-1.0,1.4375,345.3125,-24.3125,-178.5,-0.1248779296875,0.969482421875,0.03887939453125,0.20733642578125,-2.0,-2.0,-9.0,-403.0,23.0,-893.0,583,599.044100537985,-253.5517483683684,
39,1.8701870441436768,0.0460047721862793,21.736875382207526,20.85352912807572,102387.75,-401.0,25.0,-925.0,15.1875,16.875,44.6875,-1.0,-0.625,0.3125,345.3125,-24.3125,-178.4375,-0.12451171875,0.969482421875,0.039306640625,0.20751953125,0.0,0.0,-28.0,-404.0,24.0,-893.0,639,607.035280430388,-168.10074239910136,
40,1.920192003250122,0.05000495910644531,19.998016554144257,20.831250173053473,102387.75,-405.0,10.0,-913.0,14.875,17.25,45.375,-1.4375,-2.875,-1.8125,345.25,-24.375,-178.375,-0.12493896484375,0.96929931640625,0.03985595703125,0.20806884765625,0.0,-14.0,-21.0,-405.0,24.0,-892.0,662,618.0282243443104,-90.51317904540106,
41,1.9671967029571533,0.04700469970703125,21.274468430449602,20.841840543127937,102387.75,-415.0,-4.0,-910.0,14.5625,17.5625,46.1875,-1.0,-2.1875,-0.5,345.125,-24.5,-178.375,-0.126220703125,0.9688720703125,0.040283203125,0.2091064453125,-8.0,-29.0,-18.0,-407.0,24.0,-891.0,662,626.8225794754484,-34.99149711560931,
42,2.0142011642456055,0.04700446128845215,21.27457633996277,20.851939094043065,102387.75,-416.0,11.0,-888.0,14.5625,17.5625,46.1875,0.1875,-1.8125,1.25,345.125,-24.5625,-178.375,-0.12603759765625,0.96875,0.04022216796875,0.20977783203125,-8.0,-13.0,2.0,-408.0,24.0,-891.0,662,633.8580635803587,1.9421910432144145,
43,2.0612058639526367,0.04700469970703125,21.274468430449602,20.86157465006517,102387.75,-420.0,10.0,-912.0,13.75,16.5,45.75,0.6875,0.0625,2.375,345.0,-24.625,-178.375,-0.12725830078125,0.96844482421875,0.0406494140625,0.21026611328125,-10.0,-14.0,-22.0,-409.0,24.0,-890.0,648,636.6864508642869,13.588240030774806,
44,2.106210470199585,0.04500460624694824,22.219947765187033,20.89059978693893,102392.0,-411.0,20.0,-919.0,13.75,16.0625,45.375,1.125,-1.6875,2.875,344.875,-24.6875,-178.375,-0.12835693359375,0.96826171875,0.041015625,0.21044921875,-4.0,-3.0,-30.0,-410.0,24.0,-890.0,667,642.7491606914296,37.81321115953884,
45,2.1522152423858643,0.0460047721862793,21.736875382207526,20.908689388387895,102392.0,-413.0,14.0,-905.0,16.0,16.875,44.1875,0.0,-2.1875,-0.4375,345.0625,-24.8125,-178.375,-0.12664794921875,0.96832275390625,0.0406494140625,0.21142578125,-1.0,-10.0,-15.0,-411.0,24.0,-889.0,646,643.3993285531437,33.077092485150565,
46,2.1972196102142334,0.04500436782836914,22.220065479280787,20.935549540045706,102392.0,-429.0,17.0,-895.0,15.1875,16.875,45.75,0.0625,-1.6875,2.0625,345.0625,-24.9375,-178.375,-0.12652587890625,0.96807861328125,0.04083251953125,0.21246337890625,-15.0,-7.0,-6.0,-413.0,24.0,-888.0,662,647.119462842515,42.99399948842974,
47,2.2432241439819336,0.046004533767700195,21.736988033603343,20.95198561681428,102392.0,-409.0,18.0,-900.0,15.1875,17.25,45.375,-0.1875,-0.4375,2.25,345.1875,-24.9375,-178.3125,-0.12579345703125,0.9681396484375,0.041015625,0.21270751953125,4.0,-6.0,-12.0,-414.0,25.0,-888.0,660,649.695570274012,45.59456287308921,
48,2.289228677749634,0.046004533767700195,21.736988033603343,20.967761091995904,102392.0,-420.0,16.0,-915.0,15.5625,16.875,45.375,-0.375,-0.875,1.625,345.25,-24.9375,-178.3125,-0.12506103515625,0.96820068359375,0.04119873046875,0.212890625,-6.0,-9.0,-27.0,-414.0,26.0,-888.0,642,648.1564562192095,29.784509540153103,
49,2.336233377456665,0.04700469970703125,21.274468430449602,20.973932002180252,102392.0,-417.0,24.0,-911.0,15.1875,17.5625,45.0,-0.75,-0.25,1.875,345.3125,-25.0,-178.25,-0.12432861328125,0.96820068359375,0.04150390625,0.2130126953125,-2.0,-1.0,-23.0,-414.0,26.0,-888.0,665,651.5251649753676,38.16110524897529,
50,2.3832383155822754,0.04700493812561035,21.274360522031113,20.979857395328903,102392.0,-418.0,21.0,-891.0,15.5625,17.25,45.375,0.1875,-1.5625,0.1875,345.375,-25.0,-178.25,-0.12408447265625,0.96820068359375,0.04156494140625,0.213134765625,-7.0,-5.0,-9.0,-414.0,27.0,-888.0,679,657.0201319802941,53.90926602307452,
51,2.4312429428100586,0.0480046272277832,20.831325181528314,20.976924642937416,102392.0,-428.0,12.0,-896.0,14.875,17.5625,45.75,0.1875,-0.5,0.5,345.375,-25.0625,-178.25,-0.12408447265625,0.9681396484375,0.04150390625,0.21356201171875,-12.0,-13.0,-9.0,-415.0,26.0,-887.0,717,669.0161055842352,93.10581822100522,
52,2.479247808456421,0.048004865646362305,20.83122172170432,20.974103444857008,102388.25,-417.0,16.0,-896.0,15.5625,17.25,45.0,-0.1875,1.3125,0.4375,345.375,-25.0,-178.25,-0.12371826171875,0.96820068359375,0.04144287109375,0.21343994140625,-2.0,-10.0,-8.0,-415.0,26.0,-887.0,712,677.6128844673882,110.30093597828925,
53,2.527252674102783,0.048004865646362305,20.83122172170432,20.971389423424345,102388.25,-432.0,21.0,-897.0,15.1875,16.5,46.1875,1.25,-2.25,0.0625,345.375,-25.0625,-178.25,-0.12371826171875,0.96807861328125,0.04119873046875,0.21392822265625,-15.0,-4.0,-10.0,-416.0,26.0,-887.0,736,689.2903075739106,136.8917467566556,
54,2.5742573738098145,0.04700469970703125,21.274468430449602,20.97692350010901,102388.25,-414.0,2.0,-942.0,14.875,16.0625,45.375,2.5625,-2.375,0.3125,345.4375,-25.1875,-178.375,-0.12353515625,0.96795654296875,0.04052734375,0.2147216796875,0.0,-19.0,-52.0,-417.0,25.0,-887.0,703,692.0322460591285,121.18005415372522,
55,2.6212620735168457,0.04700469970703125,21.274468430449602,20.98225910170387,102388.25,-410.0,17.0,-889.0,16.0,16.875,45.375,3.875,-5.875,0.3125,345.5,-25.375,-178.5,-0.12298583984375,0.9676513671875,0.03948974609375,0.21661376953125,9.0,-5.0,-4.0,-420.0,22.0,-885.0,750,703.6257968473028,146.27336937094583,
56,2.669266939163208,0.048004865646362305,20.83122172170432,20.97954280194828,102388.25,-424.0,24.0,-886.0,16.0,17.25,45.75,-1.0,-2.0625,-3.1875,345.4375,-25.5625,-178.625,-0.12353515625,0.96722412109375,0.03900146484375,0.21832275390625,-7.0,5.0,-10.0,-423.0,21.0,-884.0,726,708.1006374778423,135.6619749655684,
57,2.7162716388702393,0.04700469970703125,21.274468430449602,20.984646448581124,102388.25,-419.0,39.0,-900.0,15.1875,16.0625,44.6875,-1.3125,-1.8125,-5.25,345.1875,-25.625,-178.5625,-0.125244140625,0.96685791015625,0.0396728515625,0.21893310546875,5.0,17.0,-17.0,-424.0,21.0,-883.0,717,709.8805099822738,116.10274825360545,
58,2.7652764320373535,0.04900479316711426,20.406167139402843,20.974394938616587,102388.25,-435.0,23.0,-888.0,15.1875,16.0625,44.6875,2.4375,-4.625,-12.6875,344.8125,-25.75,-178.8125,-0.12945556640625,0.96600341796875,0.038330078125,0.220458984375,-31.0,3.0,-17.0,-427.0,16.0,-882.0,736,715.1044079858191,114.20214575879197,
59,2.8112809658050537,0.046004533767700195,21.736988033603343,20.986874210598312,102388.25,-452.0,4.0,-908.0,16.0,16.0625,44.5625,6.5625,-4.625,-10.875,344.3125,-26.0,-179.3125,-0.13287353515625,0.96514892578125,0.03582763671875,0.22247314453125,-22.0,-5.0,-27.0,-430.0,9.0,-881.0,773,726.6835263886553,141.70074823945907,
60,2.857285499572754,0.046004533767700195,21.736988033603343,20.99895163047995,102390.0,-452.0,11.0,-916.0,15.1875,17.25,45.375,4.75,-6.375,-10.8125,343.8125,-26.3125,-179.875,-0.1365966796875,0.964111328125,0.03271484375,0.22528076171875,-17.0,10.0,-37.0,-434.0,1.0,-879.0,843,749.9468211109242,214.4953903915968,
61,2.903290271759033,0.0460047721862793,21.736875382207526,21.010644575694315,102390.0,-439.0,13.0,-894.0,16.375,17.5625,45.375,0.6875,-8.5,-13.375,343.375,-26.5625,179.75,-0.14019775390625,0.9630126953125,0.03155517578125,0.22796630859375,-4.0,21.0,-4.0,-439.0,-3.0,-876.0,884,776.7574568887394,288.152202077302,
62,2.9492948055267334,0.046004533767700195,21.736988033603343,21.02197443396203,102390.0,-477.0,30.0,-867.0,16.6875,18.75,44.5625,-4.75,-7.1875,-17.5,342.5625,-27.0,179.5,-0.14697265625,0.961181640625,0.03155517578125,0.2313232421875,-35.0,40.0,8.0,-445.0,-7.0,-873.0,889,799.2059655109915,328.1143543206688,
63,2.9962995052337646,0.04700469970703125,21.274468430449602,21.025935454701777,102390.0,-474.0,41.0,-828.0,15.5625,17.5625,44.6875,-5.375,-6.0625,-24.0625,341.5,-27.25,179.25,-0.1558837890625,0.95916748046875,0.03216552734375,0.23388671875,-36.0,51.0,14.0,-449.0,-11.0,-871.0,941,827.5647724087933,383.15519187103496,
64,3.044304370880127,0.048004865646362305,20.83122172170432,21.022865063093942,102390.0,-491.0,39.0,-858.0,16.0,18.0,44.5625,-4.625,-4.375,-27.375,340.1875,-27.5625,178.8125,-0.16680908203125,0.95672607421875,0.03179931640625,0.2364501953125,-34.0,54.0,9.0,-454.0,-17.0,-869.0,983,858.6518179270347,436.04038106946837,
65,3.091309070587158,0.04700469970703125,21.274468430449602,21.026690801788384,102390.0,-475.0,25.0,-878.0,16.0,17.5625,45.0,-5.3125,-6.375,-33.125,339.0,-27.8125,178.625,-0.17669677734375,0.954345703125,0.0330810546875,0.2386474609375,-20.0,41.0,-16.0,-458.0,-20.0,-866.0,955,877.9214543416279,430.8225591692755,
66,3.1393139362335205,0.048004865646362305,20.83122172170432,21.02370178344933,102390.0,-495.0,-2.0,-881.0,16.6875,18.75,45.0,-5.75,-10.375,-36.875,337.1875,-28.25,178.0625,-0.1912841796875,0.95050048828125,0.03326416015625,0.24261474609375,-35.0,17.0,-22.0,-464.0,-28.0,-863.0,922,886.7371634733023,381.3864456466132,
67,3.1863186359405518,0.04700469970703125,21.274468430449602,21.027401103035835,102390.0,-508.0,-28.0,-891.0,14.875,18.375,44.5625,-5.125,-13.375,-32.875,335.3125,-28.75,177.375,-0.2066650390625,0.946044921875,0.03326416015625,0.2474365234375,-37.0,14.0,-34.0,-472.0,-38.0,-858.0,894,888.1897307786419,311.2896759734006,
68,3.233323097229004,0.04700446128845215,21.27457633996277,21.030994415088553,102387.75,-495.0,-27.0,-885.0,15.1875,19.0625,45.0,-5.8125,-11.0625,-29.0625,334.0625,-29.1875,176.9375,-0.21697998046875,0.94268798828125,0.0335693359375,0.25128173828125,-16.0,17.0,-30.0,-478.0,-44.0,-854.0,857,881.9517846229136,222.48980843979666,
69,3.2833282947540283,0.050005197525024414,19.9979212060819,21.015260676261178,102387.75,-488.0,-34.0,-894.0,15.5625,18.75,43.375,-8.8125,-10.875,-28.875,332.5625,-29.625,176.5625,-0.22894287109375,0.9388427734375,0.03472900390625,0.2548828125,-3.0,11.0,-62.0,-484.0,-50.0,-850.0,820,869.5614276983309,128.4355704532303,
70,3.3293328285217285,0.046004533767700195,21.736988033603343,21.025233464291706,102387.75,-468.0,-45.0,-856.0,15.1875,17.5625,45.0,-9.9375,-13.3125,-28.25,331.1875,-30.0,176.3125,-0.24017333984375,0.93505859375,0.036865234375,0.258056640625,22.0,8.0,-9.0,-490.0,-53.0,-847.0,829,861.4491421586647,67.48112562240459,
71,3.3763375282287598,0.04700469970703125,21.274468430449602,21.028703263931934,102387.75,-506.0,-62.0,-859.0,14.875,19.0625,44.6875,-12.1875,-13.125,-28.875,329.5,-30.5625,176.0,-0.2532958984375,0.93017578125,0.0396728515625,0.26275634765625,-7.0,-4.0,-17.0,-499.0,-58.0,-842.0,754,839.9593137269319,-37.45203481141189,
72,3.424342155456543,0.0480046272277832,20.831325181528314,21.02593629122927,102387.75,-474.0,-60.0,-831.0,15.1875,19.0625,45.375,-12.4375,-12.5,-25.875,328.0,-31.0625,175.875,-0.2652587890625,0.92559814453125,0.04315185546875,0.2666015625,32.0,0.0,5.0,-506.0,-60.0,-837.0,689,809.7674509815456,-155.7489299861719,
73,3.4723470211029053,0.048004865646362305,20.83122172170432,21.023244380918285,102387.75,-501.0,-60.0,-843.0,16.6875,18.375,45.375,-12.3125,-11.75,-23.8125,326.5625,-31.5625,175.6875,-0.2763671875,0.92108154296875,0.04644775390625,0.27032470703125,12.0,2.0,-10.0,-513.0,-62.0,-833.0,662,780.2139607852365,-247.72620537484352,
74,3.5203518867492676,0.048004865646362305,20.83122172170432,21.02062588644581,102387.75,-486.0,-80.0,-866.0,16.6875,18.375,45.375,-10.1875,-9.3125,-22.625,325.5,-31.75,175.5,-0.2845458984375,0.91796875,0.0484619140625,0.27197265625,30.0,-16.0,-35.0,-516.0,-64.0,-830.0,653,754.7711686281892,-304.18185322841316,
75,3.565356492996216,0.04500460624694824,22.219947765187033,21.035764627556865,102387.75,-477.0,-82.0,-816.0,15.1875,18.0,45.5,-6.0,-6.6875,-21.375,324.1875,-31.9375,175.1875,-0.2952880859375,0.9140625,0.0496826171875,0.27349853515625,41.0,-13.0,13.0,-519.0,-69.0,-829.0,615,726.8169349025515,-367.57380522263077,
76,3.61436128616333,0.04900479316711426,20.406167139402843,21.02722832134873,102388.0,-494.0,-69.0,-784.0,14.1875,17.5625,45.0625,-3.125,-3.3125,-21.875,322.75,-32.0625,174.75,-0.30621337890625,0.90997314453125,0.05010986328125,0.27520751953125,26.0,6.0,42.0,-521.0,-75.0,-827.0,583,698.0535479220412,-411.4491406220279,
77,3.6613659858703613,0.04700469970703125,21.274468430449602,21.03040239548627,102388.0,-531.0,-69.0,-790.0,15.875,18.0625,45.0,0.6875,2.3125,-23.125,321.875,-31.9375,174.1875,-0.31500244140625,0.9071044921875,0.04736328125,0.27508544921875,-12.0,15.0,37.0,-518.0,-85.0,-827.0,583,675.0428383376329,-427.06743542076975,
78,3.7053701877593994,0.044004201889038086,22.72510253728998,21.05052830016043,102388.0,-552.0,-72.0,-820.0,14.5,18.0,44.75,7.0,1.5625,-14.625,320.9375,-31.75,173.4375,-0.3216552734375,0.90496826171875,0.04315185546875,0.27520751953125,-23.0,27.0,7.0,-516.0,-94.0,-828.0,508,641.6342706701064,-493.49657351032215,
79,3.7523751258850098,0.04700493812561035,21.274360522031113,21.053332182871134,102388.0,-524.0,-87.0,-829.0,15.0625,18.0625,44.75,11.5625,1.6875,-10.25,320.5,-31.5,172.625,-0.32440185546875,0.9041748046875,0.03863525390625,0.275146484375,-11.0,18.0,0.0,-512.0,-106.0,-829.0,498,612.9074165360852,-517.0263491104512,
80,3.803380250930786,0.05100512504577637,19.60587292164296,21.03392107071648,102388.0,-573.0,-153.0,-887.0,14.0625,18.375,46.25,15.3125,3.875,-4.5625,320.0625,-31.1875,171.75,-0.32781982421875,0.90313720703125,0.03375244140625,0.2752685546875,-64.0,-33.0,-57.0,-508.0,-119.0,-830.0,494,589.1259332288682,-506.8724272102547,
81,3.8493847846984863,0.046004533767700195,21.736988033603343,21.042323521924697,102388.0,-500.0,-164.0,-897.0,13.0,18.875,45.5,10.625,3.8125,10.375,320.25,-31.0625,171.3125,-0.32623291015625,0.90338134765625,0.0286865234375,0.275634765625,-12.0,-30.0,-76.0,-506.0,-126.0,-829.0,437,558.7007465830947,-537.7683253760695,
82,3.8963894844055176,0.04700469970703125,21.274468430449602,21.045124038083927,102388.0,-496.0,-154.0,-851.0,13.6875,20.0,45.5,-0.6875,-1.25,5.5625,320.5,-31.125,171.3125,-0.32415771484375,0.90447998046875,0.02764892578125,0.27587890625,10.0,-28.0,-21.0,-506.0,-126.0,-829.0,428,532.5605972664757,-541.4382165815853,
83,3.94439435005188,0.048004865646362305,20.83122172170432,21.04252076086366,102388.0,-511.0,-121.0,-881.0,13.6875,20.6875,44.6875,-13.1875,-4.375,5.1875,320.625,-31.3125,171.875,-0.3236083984375,0.904541015625,0.0322265625,0.27587890625,-1.0,-3.0,-52.0,-509.0,-117.0,-829.0,423,510.64847781318065,-524.4418170100803,
84,3.991399049758911,0.04700469970703125,21.274468430449602,21.04525229194354,102391.25,-455.0,-96.0,-811.0,14.0625,19.1875,46.25,-12.6875,-8.5,-5.75,320.125,-31.625,172.5,-0.32720947265625,0.90277099609375,0.03900146484375,0.2764892578125,58.0,12.0,16.0,-514.0,-108.0,-827.0,461,500.7187822505445,-461.8032525623199,
85,4.038403749465942,0.04700469970703125,21.274468430449602,21.047920236118244,102391.25,-489.0,-101.0,-813.0,14.5,19.1875,46.25,-4.5625,-7.5,-10.5625,319.375,-31.9375,172.625,-0.33209228515625,0.90032958984375,0.04217529296875,0.27813720703125,30.0,7.0,9.0,-518.0,-106.0,-825.0,372,474.9750258004357,-478.9795488256607,
86,4.086408615112305,0.048004865646362305,20.83122172170432,21.045374581963216,102391.25,-472.0,-128.0,-819.0,14.75,17.6875,45.375,0.0,-3.0,-10.625,318.75,-32.0,172.375,-0.337890625,0.89776611328125,0.04254150390625,0.27935791015625,47.0,-18.0,4.0,-520.0,-110.0,-824.0,372,454.38002064034856,-468.98746283041237,
87,4.135413408279419,0.04900479316711426,20.406167139402843,21.03779995146779,102391.25,-470.0,-160.0,-836.0,14.0625,18.875,44.25,-0.625,-2.8125,-9.875,318.1875,-31.9375,172.0,-0.3421630859375,0.89605712890625,0.041015625,0.2799072265625,49.0,-44.0,-12.0,-519.0,-115.0,-823.0,381,439.7040165122789,-435.0861688995211,
88,4.18241810798645,0.04700469970703125,21.274468430449602,21.040459783769926,102391.25,-469.0,-151.0,-834.0,14.75,18.875,44.75,-4.1875,1.5625,-5.4375,317.75,-31.8125,171.8125,-0.345703125,0.8948974609375,0.0404052734375,0.27923583984375,47.0,-32.0,-9.0,-517.0,-118.0,-824.0,381,427.9632132098231,-398.02480496085974,
89,4.2294228076934814,0.04700469970703125,21.274468430449602,21.043060494709966,102391.25,-476.0,-168.0,-827.0,15.5,18.5,45.0625,-4.5,4.375,-4.6875,317.375,-31.375,171.6875,-0.34881591796875,0.894775390625,0.03900146484375,0.27606201171875,34.0,-48.0,1.0,-511.0,-120.0,-828.0,348,411.97057056785854,-386.46683816987525,
90,4.276427507400513,0.04700469970703125,21.274468430449602,21.04560403379965,102391.25,-516.0,-161.0,-874.0,13.6875,18.5,46.0,-0.3125,6.5,-1.0,317.0,-31.125,171.625,-0.351806640625,0.894287109375,0.038330078125,0.27398681640625,-3.0,-48.0,-32.0,-506.0,-121.0,-830.0,348,399.1764564542869,-363.61106589685016,
91,4.322432279586792,0.0460047721862793,21.736875382207526,21.052961414747543,102391.25,-486.0,-163.0,-879.0,13.6875,18.5,46.0,8.0625,4.0,4.9375,317.125,-30.875,171.5,-0.35113525390625,0.89501953125,0.03643798828125,0.2725830078125,17.0,-39.0,-47.0,-503.0,-123.0,-832.0,418,402.94116516342956,-274.522251905291,
92,4.369436979293823,0.04700469970703125,21.274468430449602,21.05534430087347,102384.5,-511.0,-181.0,-869.0,13.6875,18.0625,45.5,10.75,0.75,4.625,317.3125,-30.6875,171.0,-0.349853515625,0.8956298828125,0.0318603515625,0.272705078125,-10.0,-50.0,-36.0,-500.0,-131.0,-832.0,390,400.3529321307437,-230.63045791313732,
93,4.416441440582275,0.04700446128845215,21.27457633996277,21.057677601118296,102384.5,-498.0,-189.0,-852.0,13.6875,18.0625,45.5,11.5625,2.1875,10.8125,317.75,-30.6875,170.75,-0.34637451171875,0.89691162109375,0.02880859375,0.27349853515625,2.0,-54.0,-20.0,-500.0,-135.0,-832.0,386,397.48234570459493,-196.71846834322236,
94,4.461446046829224,0.04500460624694824,22.219947765187033,21.069401941284568,102384.5,-475.0,-185.0,-819.0,13.25,19.1875,46.25,15.4375,1.625,14.3125,318.375,-30.625,170.4375,-0.34136962890625,0.89862060546875,0.02484130859375,0.27447509765625,25.0,-45.0,11.0,-500.0,-139.0,-831.0,381,394.18587656367595,-172.02424909873207,
95,4.511451005935669,0.05000495910644531,19.998016554144257,21.057526697066972,102384.5,-482.0,-173.0,-802.0,14.0625,20.0,45.875,21.0,4.8125,22.375,319.5625,-30.6875,170.0625,-0.33203125,0.90185546875,0.01947021484375,0.27581787109375,18.0,-28.0,28.0,-500.0,-145.0,-830.0,409,397.1487012509408,-125.7692758503957,
96,4.5584557056427,0.04700469970703125,21.274468430449602,21.059763700493143,102384.5,-453.0,-167.0,-812.0,13.25,19.5625,44.75,24.0,10.125,29.6875,321.0625,-30.5,169.6875,-0.320068359375,0.90625,0.01239013671875,0.27581787109375,44.0,-16.0,18.0,-498.0,-151.0,-831.0,447,407.1189610007526,-58.19302542216579,
97,4.6074604988098145,0.04900479316711426,20.406167139402843,21.052812069697993,102384.5,-463.0,-157.0,-770.0,14.5,20.0,44.6875,22.4375,11.0625,30.3125,322.875,-30.25,169.375,-0.30877685546875,0.9105224609375,0.006591796875,0.274658203125,37.0,-5.0,55.0,-494.0,-154.0,-832.0,423,410.29516880060214,-33.591574891091774,
98,4.65746545791626,0.05000495910644531,19.998016554144257,21.04148723925158,102384.5,-520.0,-164.0,-780.0,14.0625,20.375,44.6875,17.75,14.8125,35.1875,324.5625,-29.875,169.375,-0.29248046875,0.91680908203125,6.103515625e-05,0.27191162109375,-39.0,-12.0,55.0,-488.0,-155.0,-835.0,409,410.0361350404817,-27.909292197467487,
99,4.707470417022705,0.05000495910644531,19.998016554144257,21.030403004128427,102384.5,-531.0,-149.0,-806.0,14.5,20.6875,44.0,14.1875,19.375,43.0,326.3125,-29.5,169.75,-0.279052734375,0.92218017578125,-0.002685546875,0.267822265625,-40.0,5.0,23.0,-482.0,-151.0,-839.0,348,397.6289080323854,-71.9514199777611,
100,4.753475189208984,0.0460047721862793,21.736875382207526,21.037240338818467,102384.0,-516.0,-91.0,-839.0,15.5,20.6875,43.875,13.8125,17.1875,41.375,328.625,-28.9375,170.3125,-0.26068115234375,0.9290771484375,-0.00518798828125,0.2623291015625,-32.0,52.0,8.0,-475.0,-143.0,-845.0,437,405.50312642590836,-23.328955191749998,
101,4.802479982376099,0.04900479316711426,20.406167139402843,21.030800830122097,102384.0,-542.0,-85.0,-869.0,13.25,21.5,45.0,15.6875,13.875,34.375,330.3125,-28.625,170.6875,-0.24700927734375,0.933837890625,-0.00738525390625,0.258544921875,-70.0,52.0,-24.0,-469.0,-138.0,-849.0,484,421.2025011407267,45.40964872953967,
102,4.848484754562378,0.0460047721862793,21.736875382207526,21.03750040752814,102384.0,-518.0,-110.0,-878.0,15.5,23.0,44.1875,16.875,10.5,33.75,332.3125,-28.375,170.875,-0.23095703125,0.9385986328125,-0.01092529296875,0.2559814453125,-54.0,20.0,-18.0,-466.0,-136.0,-851.0,461,429.1620009125814,70.93064991273457,
103,4.896489381790161,0.0480046272277832,20.831325181528314,21.03547908896784,102384.0,-520.0,-110.0,-853.0,16.25,22.5625,44.25,15.25,8.25,33.625,333.5625,-28.4375,171.0625,-0.2208251953125,0.9410400390625,-0.01214599609375,0.25604248046875,-61.0,24.0,3.0,-467.0,-132.0,-851.0,470,437.3296007300651,90.77290548030665,
104,4.944494247436523,0.048004865646362305,20.83122172170432,21.03349600495923,102384.0,-523.0,-110.0,-850.0,14.6875,22.5625,43.5,12.6875,7.5,32.9375,335.375,-28.5,171.4375,-0.205810546875,0.9444580078125,-0.01312255859375,0.25592041015625,-54.0,17.0,0.0,-469.0,-126.0,-851.0,479,445.66368058405214,107.3401374412039,
105,4.990499019622803,0.0460047721862793,21.736875382207526,21.03998008758976,102384.0,-501.0,-87.0,-858.0,15.0,23.375,44.25,9.9375,7.875,32.0,337.5,-28.625,172.0,-0.18853759765625,0.9481201171875,-0.0130615234375,0.25567626953125,-29.0,35.0,-9.0,-470.0,-118.0,-852.0,536,463.7309444672417,164.41728265823326,
106,5.038503646850586,0.0480046272277832,20.831325181528314,21.037992116222313,102384.0,-483.0,-77.0,-887.0,16.1875,22.1875,44.0,9.0625,9.5625,27.8125,338.6875,-28.5,172.4375,-0.1761474609375,0.951171875,-0.0133056640625,0.25323486328125,-14.0,29.0,-44.0,-467.0,-112.0,-854.0,545,479.9847555737934,199.25151104652946,
107,5.086508512496948,0.048004865646362305,20.83122172170432,21.03604068234894,102384.0,-467.0,-68.0,-887.0,16.875,23.0,43.0625,8.875,6.625,23.5,340.0625,-28.3125,172.625,-0.16925048828125,0.9527587890625,-0.0142822265625,0.25189208984375,-13.0,42.0,-37.0,-465.0,-110.0,-855.0,531,490.18780445903474,201.90960355039368,
108,5.1345133781433105,0.048004865646362305,20.83122172170432,21.034125738134474,102383.5,-486.0,-77.0,-869.0,16.1875,22.1875,43.5,9.0625,1.875,14.625,341.0,-28.1875,172.875,-0.16107177734375,0.95465087890625,-0.01513671875,0.25,-13.0,24.0,-23.0,-463.0,-107.0,-857.0,550,502.1502435672278,211.36612711934623,
109,5.180517911911011,0.046004533767700195,21.736988033603343,21.040367363538685,102383.5,-510.0,-99.0,-884.0,17.25,22.1875,43.0625,8.875,3.0625,15.75,341.625,-28.125,172.8125,-0.15411376953125,0.95587158203125,-0.01715087890625,0.2496337890625,-47.0,7.0,-26.0,-462.0,-107.0,-857.0,540,509.72019485378223,202.00248980163582,
110,5.230522871017456,0.05000495910644531,19.998016554144257,21.03040225854179,102383.5,-438.0,-93.0,-889.0,17.25,23.0,43.0625,6.5625,2.9375,15.875,342.5625,-28.0625,172.875,-0.1463623046875,0.95721435546875,-0.01861572265625,0.2489013671875,23.0,12.0,-31.0,-461.0,-106.0,-858.0,512,510.1761558830258,163.4256550834801,
111,5.2825281620025635,0.05200529098510742,19.22881270458359,21.012666018219733,102383.5,-450.0,-94.0,-834.0,17.25,23.6875,43.0625,0.375,1.4375,4.375,343.0625,-28.125,173.0,-0.142333984375,0.95782470703125,-0.01904296875,0.24896240234375,12.0,10.0,23.0,-462.0,-105.0,-858.0,503,508.7409247064207,125.22096577024038,
112,5.327532768249512,0.04500460624694824,22.219947765187033,21.02286459268467,102383.5,-460.0,-118.0,-838.0,16.875,22.5625,42.25,-0.3125,0.875,4.25,343.1875,-28.0625,173.0625,-0.1412353515625,0.9581298828125,-0.01849365234375,0.2484130859375,1.0,-14.0,20.0,-461.0,-103.0,-858.0,512,509.3927397651365,103.07343192763797,
113,5.375537395477295,0.0480046272277832,20.831325181528314,21.021154107321898,102383.5,-432.0,-125.0,-870.0,17.25,22.5625,42.375,0.0,6.875,9.25,343.5625,-27.875,173.25,-0.1383056640625,0.958984375,-0.018310546875,0.24676513671875,26.0,-23.0,-9.0,-459.0,-101.0,-860.0,494,506.31419181210924,69.63269884282244,
114,5.422542095184326,0.04700469970703125,21.274468430449602,21.023349934201818,102383.5,-413.0,-146.0,-864.0,17.25,22.5625,42.375,1.1875,4.9375,8.25,343.9375,-27.6875,173.4375,-0.13531494140625,0.95989990234375,-0.01806640625,0.24493408203125,42.0,-47.0,-2.0,-456.0,-99.0,-862.0,484,501.85135344968745,36.71725630394959,
115,5.4725470542907715,0.05000495910644531,19.998016554144257,21.013981032805155,102383.5,-437.0,-151.0,-892.0,18.375,22.1875,43.0625,1.375,7.0,9.75,344.375,-27.5,173.625,-0.13140869140625,0.96099853515625,-0.01806640625,0.24273681640625,15.0,-55.0,-28.0,-452.0,-96.0,-864.0,447,490.88108275975003,-14.502925929002746,
116,5.522552013397217,0.05000495910644531,19.998016554144257,21.004781796277225,102387.0,-422.0,-169.0,-900.0,18.0,22.5625,42.375,2.875,6.1875,11.4375,345.0,-27.0625,173.5,-0.12664794921875,0.96246337890625,-0.02081298828125,0.2392578125,23.0,-70.0,-32.0,-446.0,-98.0,-867.0,400,472.7048662078,-84.29999664272361,
117,5.569556951522827,0.04700493812561035,21.274360522031113,21.00705693798676,102387.0,-396.0,-159.0,-835.0,16.875,22.0,41.5625,0.4375,3.1875,7.8125,345.4375,-26.8125,173.4375,-0.1226806640625,0.96337890625,-0.02264404296875,0.2374267578125,46.0,-59.0,33.0,-443.0,-99.0,-869.0,423,462.76389296624006,-109.73756705034107,
118,5.618561744689941,0.04900479316711426,20.406167139402843,21.001816009501162,102387.0,-434.0,-166.0,-836.0,17.6875,22.25,43.0625,-7.125,4.375,0.625,345.5,-26.6875,173.5625,-0.12213134765625,0.96380615234375,-0.02178955078125,0.23602294921875,6.0,-69.0,33.0,-440.0,-97.0,-870.0,362,442.6111143729921,-170.03824729971234,
119,5.665566444396973,0.04700469970703125,21.274468430449602,21.004078086082007,102387.0,-419.0,-149.0,-861.0,17.6875,20.75,42.75,-10.0,6.4375,-2.3125,345.375,-26.375,173.9375,-0.12335205078125,0.96441650390625,-0.018798828125,0.233154296875,17.0,-57.0,12.0,-436.0,-92.0,-873.0,381,430.2888914983937,-188.46034614749152,
120,5.712571144104004,0.04700469970703125,21.274468430449602,21.006302936612542,102387.0,-438.0,-131.0,-856.0,17.25,22.0,42.75,-9.4375,1.0,-13.25,344.8125,-26.1875,173.9375,-0.12835693359375,0.964111328125,-0.01806640625,0.2318115234375,-4.0,-39.0,17.0,-433.0,-92.0,-874.0,381,420.43111319871497,-192.71207556417048,
121,5.760576009750366,0.048004865646362305,20.83122172170432,21.004843924495585,102387.0,-466.0,-124.0,-928.0,16.5,22.0,42.0,-5.5625,-0.6875,-14.3125,344.125,-26.125,173.875,-0.13397216796875,0.96343994140625,-0.01739501953125,0.23126220703125,-34.0,-30.0,-52.0,-432.0,-93.0,-875.0,320,400.344890558972,-237.85377192333698,
122,5.8085808753967285,0.048004865646362305,20.83122172170432,21.003409028314053,102387.0,-414.0,-79.0,-910.0,16.875,21.5625,42.75,-2.4375,-3.3125,-6.6875,343.6875,-26.1875,173.75,-0.1376953125,0.9627685546875,-0.01708984375,0.23211669921875,19.0,15.0,-36.0,-433.0,-94.0,-874.0,357,391.67591244717767,-226.40009856814746,
123,5.85458517074585,0.046004295349121094,21.737100686166794,21.009174247665836,102387.0,-439.0,-61.0,-880.0,17.25,21.1875,43.5,-7.5625,-5.875,-10.8125,343.1875,-26.4375,173.8125,-0.1416015625,0.9617919921875,-0.015625,0.23382568359375,-2.0,32.0,-7.0,-436.0,-94.0,-872.0,372,387.74072995774213,-198.2279704527781,
124,5.904590368270874,0.050005197525024414,19.9979212060819,21.00061007895332,102391.5,-491.0,-40.0,-855.0,14.6875,21.5625,43.5625,-11.5,-4.25,-6.25,342.375,-26.625,174.0625,-0.14837646484375,0.96044921875,-0.011474609375,0.2353515625,-51.0,49.0,16.0,-439.0,-90.0,-871.0,437,397.59258396619373,-119.17905632325504,
125,5.950594902038574,0.046004533767700195,21.736988033603343,21.006303076886834,102391.5,-470.0,-12.0,-880.0,16.5,20.75,42.25,-11.25,-0.8125,-1.0625,342.1875,-26.75,174.625,-0.15020751953125,0.96014404296875,-0.0062255859375,0.2354736328125,-29.0,68.0,-8.0,-441.0,-81.0,-871.0,395,397.074067172955,-97.59744372457465,
126,5.9995996952056885,0.04900479316711426,20.406167139402843,21.001401160261953,102391.5,-462.0,12.0,-917.0,16.1875,21.1875,43.5,-7.6875,-2.3125,-3.625,342.0,-26.8125,175.0625,-0.15167236328125,0.9599609375,-0.00262451171875,0.235595703125,-19.0,87.0,-45.0,-442.0,-74.0,-871.0,437,405.05925373836396,-45.48854464104976,
127,6.04660439491272,0.04700469970703125,21.274468430449602,21.003523912834584,102391.5,-453.0,20.0,-862.0,16.5,20.75,43.0625,-3.375,-3.375,-10.8125,341.625,-26.9375,175.0625,-0.155029296875,0.9591064453125,-0.00128173828125,0.2366943359375,-8.0,94.0,7.0,-444.0,-74.0,-870.0,484,420.8474029906912,30.786060855932625,
128,6.095609426498413,0.04900503158569336,20.4060678596102,20.99872072570254,102391.5,-549.0,-1.0,-850.0,16.5,21.875,43.5,-3.3125,1.75,-14.9375,340.9375,-26.9375,174.875,-0.1607666015625,0.9581298828125,-0.00146484375,0.23699951171875,-104.0,75.0,19.0,-444.0,-77.0,-870.0,484,433.477922392553,76.17669588804921,
129,6.1466145515441895,0.05100512504577637,19.60587292164296,20.98716275735752,102391.5,-517.0,-4.0,-920.0,16.875,20.6875,44.0,0.6875,6.0625,-6.8125,340.4375,-26.625,174.75,-0.1650390625,0.9580078125,-0.00213623046875,0.234375,-78.0,75.0,-47.0,-439.0,-79.0,-872.0,503,447.38233791404247,115.4629974632478,
130,6.1906187534332275,0.044004201889038086,22.72510253728998,20.99951639372137,102391.5,-500.0,-1.0,-932.0,15.75,21.5,43.0625,4.875,1.4375,-8.0,340.1875,-26.4375,174.375,-0.167236328125,0.9578857421875,-0.004638671875,0.23321533203125,-63.0,83.0,-58.0,-436.0,-85.0,-873.0,470,451.905870331234,112.92994557288475,
131,6.23862361907959,0.048004865646362305,20.83122172170432,20.998221402452064,102391.5,-458.0,6.0,-916.0,15.75,21.0625,44.0,5.8125,-1.375,-4.3125,340.0625,-26.5,174.375,-0.16815185546875,0.95758056640625,-0.00439453125,0.23394775390625,-20.0,92.0,-42.0,-437.0,-85.0,-873.0,479,457.3246962649872,112.92010935777478,
132,6.288628578186035,0.05000495910644531,19.998016554144257,20.990268125848768,102389.0,-444.0,-7.0,-847.0,14.6875,21.875,42.75,8.75,-6.0,-0.9375,340.0,-26.75,173.9375,-0.16827392578125,0.9569091796875,-0.0074462890625,0.23651123046875,-3.0,82.0,41.0,-441.0,-92.0,-870.0,475,460.8597570119898,104.47492815391254,
133,6.335633277893066,0.04700469970703125,21.274468430449602,20.9923766364567,102389.0,-476.0,-57.0,-833.0,15.375,21.0625,43.0625,5.1875,3.6875,5.125,340.1875,-26.75,173.75,-0.1671142578125,0.95703125,-0.00933837890625,0.23687744140625,-48.0,40.0,24.0,-441.0,-95.0,-870.0,475,463.68780560959186,95.61298864502245,
134,6.38463830947876,0.04900503158569336,20.4060678596102,20.987876447293964,102389.0,-413.0,-87.0,-850.0,14.6875,22.1875,43.0625,0.5,11.9375,19.4375,340.9375,-26.4375,174.0,-0.16082763671875,0.9588623046875,-0.00946044921875,0.23382568359375,23.0,4.0,23.0,-435.0,-90.0,-874.0,404,451.7502444876735,27.770654449595902,
135,6.431643009185791,0.04700469970703125,21.274468430449602,20.989970961881827,102389.0,-413.0,-93.0,-870.0,15.75,22.1875,42.75,-5.8125,10.0,10.125,341.6875,-26.0,174.5,-0.1546630859375,0.9609375,-0.0074462890625,0.2294921875,16.0,-9.0,7.0,-430.0,-83.0,-877.0,325,426.4001955901388,-85.64523943651437,
136,6.479647874832153,0.048004865646362305,20.83122172170432,20.98879485847414,102389.0,-481.0,-128.0,-922.0,15.0,21.5,44.75,-1.875,5.1875,14.375,342.0625,-25.6875,175.0,-0.151611328125,0.962158203125,-0.00567626953125,0.226318359375,-52.0,-49.0,-40.0,-426.0,-78.0,-879.0,329,406.9201564721111,-149.67479435223328,
137,6.526652574539185,0.04700469970703125,21.274468430449602,20.99085226850349,102389.0,-377.0,-115.0,-924.0,15.0,21.5,44.75,1.9375,9.625,22.1875,342.875,-25.4375,175.375,-0.144775390625,0.9638671875,-0.0040283203125,0.2235107421875,43.0,-44.0,-42.0,-421.0,-71.0,-882.0,339,393.3361251776889,-177.53844446807145,
138,6.575657367706299,0.04900479316711426,20.406167139402843,20.98649492866395,102389.0,-366.0,-127.0,-884.0,16.5,22.1875,43.5625,3.4375,2.875,9.375,343.875,-25.25,175.5625,-0.136474609375,0.96551513671875,-0.00482177734375,0.22174072265625,51.0,-58.0,0.0,-418.0,-68.0,-884.0,292,373.06890014215116,-224.74603187987185,
139,6.621662139892578,0.0460047721862793,21.736875382207526,20.991708284629418,102388.75,-373.0,-135.0,-844.0,14.6875,20.75,44.0,-2.0625,4.6875,1.125,344.0,-25.0625,175.5,-0.13543701171875,0.96600341796875,-0.00567626953125,0.22015380859375,42.0,-65.0,40.0,-415.0,-69.0,-885.0,390,376.45512011372097,-165.07565719614647,
140,6.671667098999023,0.05000495910644531,19.998016554144257,20.984260443840903,102388.75,-349.0,-167.0,-892.0,15.375,20.6875,44.75,-9.375,6.125,-8.75,343.5625,-24.5,175.25,-0.13922119140625,0.9664306640625,-0.0078125,0.2156982421875,57.0,-93.0,-3.0,-406.0,-73.0,-889.0,367,374.5640960909768,-139.62387169914155,
141,6.719671726226807,0.0480046272277832,20.831325181528314,20.983167890431094,102388.75,-356.0,-170.0,-855.0,15.375,20.6875,44.0,-12.0,-2.0,-19.0625,342.6875,-24.25,175.125,-0.1468505859375,0.9656982421875,-0.00714111328125,0.2139892578125,46.0,-95.0,35.0,-403.0,-75.0,-890.0,381,375.85127687278145,-106.336361072676,
142,6.767676591873169,0.048004865646362305,20.83122172170432,20.982090097289504,102388.75,-442.0,-138.0,-855.0,15.375,20.6875,44.25,-7.0625,-5.25,-17.4375,341.625,-24.4375,175.1875,-0.15576171875,0.9639892578125,-0.0047607421875,0.215576171875,-35.0,-64.0,33.0,-406.0,-74.0,-889.0,414,383.4810214982252,-53.281708463620795,
143,6.818681716918945,0.05100512504577637,19.60587292164296,20.971795713118468,102388.75,-378.0,-112.0,-957.0,15.375,19.1875,45.0625,1.875,1.75,-0.25,341.25,-24.375,175.0625,-0.15887451171875,0.9635009765625,-0.0047607421875,0.21533203125,27.0,-36.0,-67.0,-405.0,-76.0,-889.0,390,384.78481719858013,-37.5129562075079,
144,6.865686416625977,0.04700469970703125,21.274468430449602,20.97386790799081,102388.75,-328.0,-93.0,-924.0,15.0,20.5,44.75,2.0625,-2.0,-0.125,341.3125,-24.4375,175.0,-0.158203125,0.9635009765625,-0.00567626953125,0.2159423828125,72.0,-9.0,-28.0,-406.0,-77.0,-889.0,465,400.82785375886414,38.25105000005587,
145,6.913691282272339,0.048004865646362305,20.83122172170432,20.972877451412977,102388.75,-393.0,-100.0,-920.0,14.6875,20.5,44.25,-2.5625,-4.125,-11.875,340.8125,-24.625,174.8125,-0.16217041015625,0.96246337890625,-0.005615234375,0.21759033203125,0.0,-26.0,-33.0,-408.0,-79.0,-887.0,475,415.66228300709133,92.40469695699596,
146,6.961695909500122,0.0480046272277832,20.831325181528314,20.97190137259003,102388.75,-491.0,-114.0,-925.0,14.6875,20.75,44.25,1.1875,-3.5625,-5.625,340.5,-24.75,174.6875,-0.1650390625,0.961669921875,-0.00592041015625,0.21875,-80.0,-32.0,-38.0,-410.0,-82.0,-886.0,447,421.9298264056731,100.0360044906364,
147,7.007700681686401,0.0460047721862793,21.736875382207526,20.976923341512425,102387.75,-463.0,-92.0,-961.0,15.375,20.5,44.25,3.375,0.375,5.1875,340.75,-24.8125,174.5625,-0.162841796875,0.9619140625,-0.00701904296875,0.219482421875,-25.0,2.0,-79.0,-411.0,-83.0,-886.0,465,430.5438611245385,117.47724343690643,
148,7.053705215454102,0.046004533767700195,21.736988033603343,20.981880512350287,102387.75,-434.0,-46.0,-936.0,13.5625,20.0,44.0,4.1875,-7.5,3.9375,340.9375,-25.0625,174.5,-0.1612548828125,0.96160888671875,-0.0076904296875,0.2220458984375,-22.0,41.0,-41.0,-416.0,-84.0,-883.0,503,445.03508889963086,156.98092369740567,
149,7.099709987640381,0.0460047721862793,21.736875382207526,20.98677273570167,102387.75,-446.0,-48.0,-873.0,14.6875,22.0,44.25,3.4375,-9.5,1.1875,341.0,-25.375,174.375,-0.16046142578125,0.961181640625,-0.00811767578125,0.22442626953125,-19.0,38.0,-3.0,-420.0,-85.0,-881.0,522,460.42807111970467,192.50380621358062,
150,7.146714448928833,0.04700446128845215,21.27457633996277,20.9886656409621,102387.75,-473.0,-56.0,-838.0,14.6875,20.75,44.0,6.5625,-9.625,2.0625,341.0625,-25.8125,174.1875,-0.15972900390625,0.96026611328125,-0.0093994140625,0.22857666015625,-45.0,32.0,39.0,-429.0,-90.0,-877.0,526,473.54245689576373,209.8036452397626,
151,7.193719148635864,0.04700469970703125,21.274468430449602,20.990533113686254,102387.75,-458.0,-45.0,-805.0,15.75,21.5625,42.75,7.0,-3.1875,9.25,341.625,-26.125,173.9375,-0.155029296875,0.9603271484375,-0.0115966796875,0.2315673828125,-26.0,47.0,70.0,-432.0,-92.0,-875.0,597,498.23396551661097,272.90266032268784,
152,7.2397236824035645,0.046004533767700195,21.736988033603343,20.99527643153592,102387.75,-469.0,-32.0,-836.0,15.75,21.1875,43.0625,5.1875,-0.5,9.75,342.25,-26.4375,174.125,-0.14990234375,0.9605712890625,-0.01116943359375,0.23382568359375,-32.0,57.0,36.0,-437.0,-89.0,-873.0,,498.23396551661097,272.90266032268784,
153,7.286728620529175,0.04700493812561035,21.274360522031113,20.997076736046864,102387.75,-457.0,-36.0,-850.0,15.375,21.1875,43.5,3.0625,2.3125,8.0625,342.75,-26.6875,174.5,-0.1453857421875,0.96099853515625,-0.0086669921875,0.23504638671875,-17.0,46.0,21.0,-440.0,-83.0,-872.0,665,531.5871724132887,360.23575787531377,
154,7.33673357963562,0.05000495910644531,19.998016554144257,20.99026744373733,102387.75,-504.0,-51.0,-868.0,16.5,21.1875,43.5625,1.9375,2.5,5.4375,343.125,-26.75,174.6875,-0.142333984375,0.96136474609375,-0.00762939453125,0.23541259765625,-62.0,28.0,3.0,-441.0,-80.0,-871.0,675,560.269737930631,402.90749030647856,
155,7.38273811340332,0.046004533767700195,21.736988033603343,20.994920532071745,102387.5,-473.0,-53.0,-881.0,16.1875,22.0,42.75,1.625,5.375,8.5625,343.4375,-26.625,174.8125,-0.13970947265625,0.9620361328125,-0.0078125,0.2342529296875,-33.0,25.0,-8.0,-439.0,-78.0,-872.0,611,570.4157903445048,366.43491622692034,
156,7.430742979049683,0.048004865646362305,20.83122172170432,20.993862987836895,102387.5,-466.0,-49.0,-887.0,16.875,21.5625,43.0625,2.5,2.75,4.3125,343.8125,-26.4375,174.875,-0.1368408203125,0.96282958984375,-0.008056640625,0.23272705078125,-28.0,28.0,-13.0,-437.0,-77.0,-874.0,642,584.7326322756038,352.7953947057997,
157,7.48174786567688,0.051004886627197266,19.605964567849295,20.984401348279874,102387.5,-457.0,-69.0,-892.0,16.1875,22.0,44.375,2.8125,0.75,2.4375,344.0,-26.375,174.875,-0.13525390625,0.963134765625,-0.00848388671875,0.2322998046875,-20.0,8.0,-17.0,-436.0,-77.0,-874.0,615,590.786105820483,305.97315333130285,
158,7.527752637863159,0.0460047721862793,21.736875382207526,20.988999984575763,102387.5,-447.0,-77.0,-887.0,16.5,20.75,42.25,1.375,1.625,-0.25,344.0625,-26.375,174.8125,-0.1346435546875,0.96331787109375,-0.00921630859375,0.23193359375,-11.0,1.0,-12.0,-435.0,-78.0,-875.0,611,594.8288846563864,262.3539986158139,
159,7.57475733757019,0.04700469970703125,21.274468430449602,20.990771441795598,102387.5,-440.0,-82.0,-883.0,16.5,20.75,42.25,2.375,1.375,-0.125,344.0625,-26.3125,174.75,-0.134521484375,0.96337890625,-0.00982666015625,0.23162841796875,-5.0,-3.0,-8.0,-435.0,-79.0,-875.0,531,582.0631077251091,155.56617522972704,
160,7.623762130737305,0.04900479316711426,20.406167139402843,20.98701366283659,102387.5,-425.0,-82.0,-863.0,15.75,21.1875,42.25,4.0,0.8125,-2.125,344.0625,-26.3125,174.5625,-0.134521484375,0.96337890625,-0.0113525390625,0.231689453125,9.0,0.0,11.0,-434.0,-82.0,-875.0,526,570.8504861800874,78.69161432006496,
161,7.668766736984253,0.04500460624694824,22.219947765187033,20.994249208747394,102387.5,-442.0,-95.0,-882.0,15.375,21.1875,44.25,3.75,1.25,-2.625,344.0,-26.25,174.3125,-0.13531494140625,0.9632568359375,-0.0133056640625,0.231689453125,-8.0,-9.0,-7.0,-434.0,-86.0,-875.0,540,564.6803889440699,35.53344379796542,
162,7.715771436691284,0.04700469970703125,21.274468430449602,20.995956312240068,102387.5,-434.0,-92.0,-904.0,16.1875,21.5625,43.5,2.1875,0.8125,0.6875,344.0,-26.1875,174.1875,-0.13519287109375,0.96331787109375,-0.0146484375,0.2313232421875,-1.0,-2.0,-28.0,-433.0,-89.0,-875.0,559,563.544311155256,23.592864827840803,
163,7.762775897979736,0.04700446128845215,21.27457633996277,20.997643387131756,102389.75,-420.0,-88.0,-895.0,16.5,22.0,43.0625,-0.1875,-0.1875,-0.5,344.0,-26.1875,174.125,-0.135009765625,0.96337890625,-0.014892578125,0.23114013671875,12.0,0.0,-20.0,-432.0,-89.0,-875.0,559,562.6354489242049,15.007160078871529,
164,7.807780504226685,0.04500460624694824,22.219947765187033,21.0046888371439,102389.75,-433.0,-89.0,-876.0,16.1875,22.0,43.0625,-1.1875,-1.625,-2.25,343.875,-26.1875,174.125,-0.13592529296875,0.963134765625,-0.0146484375,0.23162841796875,0.0,0.0,-1.0,-433.0,-89.0,-875.0,578,565.7083591393639,25.66170895668587,
165,7.854785203933716,0.04700469970703125,21.274468430449602,21.006303255417752,102389.75,-440.0,-92.0,-857.0,15.375,20.75,42.75,-0.3125,-1.75,-1.1875,343.8125,-26.25,174.125,-0.13677978515625,0.962890625,-0.014404296875,0.23211669921875,-6.0,-3.0,17.0,-434.0,-89.0,-874.0,573,567.1666873114912,26.734398497180063,
166,7.902790069580078,0.048004865646362305,20.83122172170432,21.005239736656772,102389.75,-433.0,-92.0,-893.0,16.1875,22.25,42.25,-0.3125,2.5,0.0,343.75,-26.25,174.125,-0.136962890625,0.96295166015625,-0.0145263671875,0.23193359375,-4.0,-5.0,-19.0,-434.0,-89.0,-874.0,606,574.933349849193,53.7453326698482,
167,7.95079493522644,0.048004865646362305,20.83122172170432,21.00418906040416,102389.75,-417.0,-89.0,-905.0,16.875,22.25,43.0625,1.125,-0.0625,-1.0,343.75,-26.125,174.0625,-0.136962890625,0.963134765625,-0.01483154296875,0.23114013671875,15.0,0.0,-30.0,-432.0,-90.0,-875.0,601,580.1466798793545,64.7162728892213,
168,7.997799634933472,0.04700469970703125,21.274468430449602,21.005777547388817,102389.75,-436.0,-115.0,-873.0,16.1875,22.25,42.75,1.1875,-0.75,-5.9375,343.5625,-26.125,173.9375,-0.1385498046875,0.96282958984375,-0.01580810546875,0.23126220703125,-4.0,-23.0,1.0,-432.0,-92.0,-875.0,611,586.3173439034836,78.02853770662622,
169,8.04280424118042,0.04500460624694824,22.219947765187033,21.01257160216501,102389.75,-458.0,-101.0,-864.0,16.1875,22.25,42.75,0.0625,-1.6875,-3.1875,343.375,-26.1875,173.8125,-0.14013671875,0.96246337890625,-0.016357421875,0.23175048828125,-25.0,-6.0,9.0,-432.0,-94.0,-874.0,606,590.2538751227869,79.9167337790906,
170,8.088808536529541,0.046004295349121094,21.737100686166794,21.016692289385993,102389.75,-432.0,-87.0,-875.0,16.5,21.1875,43.0625,-1.125,1.1875,0.3125,343.375,-26.1875,173.8125,-0.14044189453125,0.96246337890625,-0.01617431640625,0.2318115234375,1.0,7.0,0.0,-433.0,-94.0,-874.0,606,593.4031000982295,77.62439109818997,
171,8.13381314277649,0.04500460624694824,22.219947765187033,21.023349934201818,102390.0,-432.0,-83.0,-885.0,15.375,21.5625,42.0,-0.1875,0.0,-0.125,343.375,-26.125,173.875,-0.14044189453125,0.9625244140625,-0.01593017578125,0.23150634765625,-2.0,14.0,-10.0,-432.0,-93.0,-875.0,611,596.9224800785837,77.73960074441499,
172,8.179817914962769,0.0460047721862793,21.736875382207526,21.027362930093155,102390.0,-434.0,-81.0,-892.0,15.375,21.5625,42.0,0.375,-1.5,-1.0625,343.3125,-26.125,173.875,-0.140625,0.96246337890625,-0.015869140625,0.2315673828125,-2.0,11.0,-17.0,-432.0,-93.0,-874.0,615,600.537984062867,77.90963250558039,
173,8.2268226146698,0.04700469970703125,21.274468430449602,21.02877478985776,102390.0,-432.0,-99.0,-874.0,16.1875,22.6875,42.75,-0.875,-2.0,-2.6875,343.25,-26.25,173.8125,-0.1414794921875,0.96221923828125,-0.0157470703125,0.232177734375,1.0,-5.0,0.0,-433.0,-94.0,-874.0,639,608.2303872502937,95.05806375750389,
174,8.275827407836914,0.04900479316711426,20.406167139402843,21.025088057688126,102390.0,-446.0,-108.0,-883.0,16.1875,22.25,42.25,-2.0,-1.4375,-1.9375,343.0625,-26.25,173.8125,-0.14276123046875,0.9619140625,-0.0152587890625,0.2325439453125,-12.0,-14.0,-8.0,-434.0,-93.0,-874.0,639,614.384309800235,101.1620454294115,
175,8.322832107543945,0.04700469970703125,21.274468430449602,21.026496478449598,102390.0,-433.0,-100.0,-870.0,16.5,21.5625,42.75,0.0625,-0.9375,1.3125,343.0625,-26.3125,173.875,-0.1427001953125,0.96185302734375,-0.0150146484375,0.23297119140625,1.0,-7.0,3.0,-435.0,-93.0,-873.0,625,616.507447840188,89.96336298442259,
176,8.369836807250977,0.04700469970703125,21.274468430449602,21.027889079931317,102390.0,-427.0,-104.0,-884.0,15.75,22.25,42.75,0.4375,-1.5625,0.1875,343.125,-26.375,173.875,-0.14251708984375,0.9617919921875,-0.0150146484375,0.23321533203125,6.0,-9.0,-7.0,-435.0,-93.0,-873.0,630,619.2059582721504,83.45256538634268,
177,8.415841579437256,0.0460047721862793,21.736875382207526,21.031764717680854,102390.0,-447.0,-97.0,-859.0,15.375,21.5625,42.375,-0.1875,-0.3125,1.4375,343.125,-26.4375,173.875,-0.14227294921875,0.96173095703125,-0.014892578125,0.23382568359375,-12.0,0.0,15.0,-436.0,-93.0,-873.0,648,624.9647666177203,91.79775218060827,
178,8.46484637260437,0.04900479316711426,20.406167139402843,21.028143000454115,102390.0,-428.0,-91.0,-886.0,16.1875,22.25,43.5,-0.625,2.375,0.5,343.1875,-26.375,173.9375,-0.1417236328125,0.9619140625,-0.0146484375,0.23333740234375,7.0,1.0,-13.0,-436.0,-92.0,-873.0,601,620.1718132941763,53.87704042216758,
179,8.51085090637207,0.046004533767700195,21.736988033603343,21.031974589753744,102391.25,-440.0,-103.0,-908.0,15.75,23.5,43.5,1.3125,-0.25,-1.75,343.1875,-26.3125,173.875,-0.14202880859375,0.96197509765625,-0.01495361328125,0.23284912109375,-10.0,-10.0,-32.0,-435.0,-93.0,-873.0,597,615.5374506353411,22.954215206038093,
180,8.558855533599854,0.0480046272277832,20.831325181528314,21.030849193956662,102391.25,-451.0,-109.0,-894.0,15.375,20.75,44.0,2.25,-1.8125,-0.4375,343.125,-26.375,173.75,-0.142333984375,0.96173095703125,-0.0159912109375,0.23358154296875,-9.0,-20.0,-22.0,-436.0,-95.0,-873.0,578,608.0299605082729,-12.914821461983706,
181,8.606860399246216,0.048004865646362305,20.83122172170432,21.029735769369733,102391.25,-434.0,-101.0,-866.0,15.75,22.6875,42.75,1.5,-1.1875,1.5,343.1875,-26.4375,173.625,-0.14166259765625,0.96160888671875,-0.01678466796875,0.2344970703125,4.0,-6.0,15.0,-437.0,-96.0,-872.0,569,600.2239684066183,-42.853527615075,
182,8.653865098953247,0.04700469970703125,21.274468430449602,21.031065069643198,102391.25,-450.0,-103.0,-881.0,16.1875,22.25,44.0,0.4375,-1.1875,1.25,343.25,-26.5,173.625,-0.14117431640625,0.9615478515625,-0.0167236328125,0.23492431640625,-12.0,-6.0,-9.0,-438.0,-96.0,-871.0,606,601.3791747252947,-29.36754202059264,
183,8.703870058059692,0.05000495910644531,19.998016554144257,21.02513006045442,102391.25,-431.0,-85.0,-874.0,16.875,23.0625,42.25,0.75,0.9375,3.75,343.375,-26.5625,173.6875,-0.14031982421875,0.961669921875,-0.0166015625,0.2349853515625,4.0,8.0,7.0,-438.0,-95.0,-871.0,578,596.7033397802358,-42.19551854362097,
184,8.753875017166138,0.05000495910644531,19.998016554144257,21.01926285664125,102391.25,-448.0,-88.0,-890.0,16.875,22.0,42.25,1.6875,-0.9375,0.875,343.5,-26.5625,173.6875,-0.13934326171875,0.9617919921875,-0.01690673828125,0.23492431640625,-3.0,0.0,-14.0,-438.0,-96.0,-871.0,578,592.9626718241886,-48.71760277661417,
185,8.800879716873169,0.04700469970703125,21.274468430449602,21.02062588644581,102391.25,-435.0,-92.0,-882.0,16.875,21.5625,42.75,1.0,-0.875,0.9375,343.5625,-26.625,173.625,-0.1387939453125,0.96173095703125,-0.017333984375,0.235595703125,3.0,4.0,-11.0,-439.0,-96.0,-871.0,587,591.770137459351,-44.04818916068446,
186,8.84788465499878,0.04700493812561035,21.274360522031113,21.02197386749564,102391.25,-440.0,-96.0,-876.0,16.5,21.5625,43.0625,-0.9375,-1.4375,0.6875,343.5625,-26.6875,173.625,-0.138427734375,0.96160888671875,-0.01715087890625,0.2362060546875,0.0,0.0,-6.0,-440.0,-96.0,-870.0,,591.770137459351,-44.04818916068446,
187,8.887888669967651,0.04000401496887207,24.99749089630429,21.039867503277424,102391.25,-455.0,-91.0,-861.0,17.25,22.25,44.0,-1.3125,-1.5,-0.6875,343.5625,-26.75,173.6875,-0.13861083984375,0.96148681640625,-0.01666259765625,0.23663330078125,-13.0,4.0,8.0,-441.0,-95.0,-870.0,606,594.6161099674808,-21.010116955925795,
188,8.934893131256104,0.04700446128845215,21.27457633996277,21.041102253628207,102390.5,-451.0,-75.0,-868.0,16.875,22.6875,41.5625,-1.4375,-0.25,-0.5625,343.5625,-26.8125,173.75,-0.1387939453125,0.96142578125,-0.01593017578125,0.23699951171875,-8.0,18.0,1.0,-442.0,-94.0,-870.0,630,601.6928879739846,13.302997223326237,
189,8.982897996902466,0.048004865646362305,20.83122172170432,21.039980646020034,102390.5,-455.0,-70.0,-903.0,16.1875,22.0,42.25,-2.25,-0.875,-5.0,343.375,-26.8125,173.8125,-0.14007568359375,0.96124267578125,-0.0150146484375,0.2369384765625,-12.0,22.0,-33.0,-442.0,-93.0,-870.0,597,600.7543103791877,6.7320541826132505,
190,9.03290319442749,0.050005197525024414,19.9979212060819,21.034211915081006,102390.5,-469.0,-39.0,-880.0,16.875,22.25,42.375,-4.6875,-1.5,-9.875,343.0,-26.875,173.9375,-0.143310546875,0.96063232421875,-0.013427734375,0.2376708984375,-25.0,52.0,-10.0,-443.0,-92.0,-869.0,625,605.6034483033502,24.780178971055673,
191,9.084908246994019,0.05200505256652832,19.228900859598856,21.023877710949627,102390.5,-452.0,-39.0,-859.0,16.5,21.5625,42.0,-9.1875,-0.375,-18.1875,342.25,-26.875,174.1875,-0.1494140625,0.95977783203125,-0.00982666015625,0.23748779296875,-8.0,48.0,10.0,-444.0,-88.0,-869.0,615,607.4827586426802,27.051557616723688,
192,9.133913278579712,0.04900503158569336,20.4060678596102,21.020563053764317,102390.5,-481.0,-52.0,-862.0,16.875,22.0,43.5,-9.875,-0.625,-27.0625,341.0,-26.9375,174.3125,-0.15985107421875,0.95806884765625,-0.00634765625,0.23760986328125,-36.0,34.0,7.0,-444.0,-86.0,-869.0,606,607.1862069141442,20.430955154100996,
193,9.182918071746826,0.04900479316711426,20.406167139402843,21.017284319872676,102390.5,-475.0,-57.0,-864.0,15.75,22.0,43.0625,-7.3125,1.375,-29.3125,339.625,-27.0625,174.1875,-0.1715087890625,0.955810546875,-0.0040283203125,0.23876953125,-28.0,30.0,3.0,-446.0,-87.0,-868.0,597,605.1489655313154,8.030306491018163,
194,9.229922771453857,0.04700469970703125,21.274468430449602,21.018594066680578,102390.5,-458.0,-80.0,-893.0,15.375,22.0,44.75,-4.6875,-1.25,-32.625,338.0625,-26.9375,173.8125,-0.18450927734375,0.953369140625,-0.00396728515625,0.23883056640625,-13.0,13.0,-24.0,-445.0,-93.0,-868.0,569,597.9191724250524,-24.337755846760594,
195,9.279927730560303,0.05000495910644531,19.998016554144257,21.013094677217524,102391.75,-437.0,-74.0,-890.0,15.0,22.0,43.0625,-5.625,-3.875,-31.1875,336.4375,-26.9375,173.25,-0.1978759765625,0.95050048828125,-0.00482177734375,0.23956298828125,7.0,27.0,-22.0,-444.0,-101.0,-868.0,550,588.3353379400419,-57.80174081409208,
196,9.330932855606079,0.05100512504577637,19.60587292164296,21.00540246436797,102391.75,-418.0,-96.0,-892.0,14.375,23.0625,44.0,-8.1875,-4.375,-32.375,334.8125,-26.8125,172.875,-0.2113037109375,0.94757080078125,-0.004638671875,0.23956298828125,24.0,11.0,-24.0,-443.0,-107.0,-868.0,559,582.4682703520335,-69.24718896191007,
197,9.374937295913696,0.04400444030761719,22.724979411382254,21.01347388060584,102391.75,-402.0,-112.0,-856.0,14.375,23.0625,44.0,-10.1875,-4.25,-33.9375,333.4375,-26.8125,172.625,-0.22271728515625,0.9449462890625,-0.00384521484375,0.23968505859375,39.0,0.0,11.0,-442.0,-111.0,-867.0,611,588.1746162816269,-29.462432416681338,
198,9.42394232749939,0.04900503158569336,20.4060678596102,21.010315335040744,102391.75,-430.0,-142.0,-881.0,13.5625,23.0625,44.75,-9.375,-4.5625,-31.4375,331.6875,-26.8125,172.25,-0.2371826171875,0.94122314453125,-0.0029296875,0.240478515625,12.0,-25.0,-13.0,-442.0,-117.0,-867.0,601,590.7396930253016,-13.101319914038314,
199,9.470947027206421,0.04700469970703125,21.274468430449602,21.011626337719854,102391.75,-370.0,-149.0,-872.0,13.1875,22.25,44.25,-9.25,-2.75,-23.0,330.3125,-26.8125,172.0625,-0.24822998046875,0.93829345703125,-0.00146484375,0.2408447265625,71.0,-29.0,-5.0,-442.0,-119.0,-866.0,573,587.1917544202413,-25.577157500536263,
200,9.517951726913452,0.04700469970703125,21.274468430449602,21.012924391544207,102391.75,-409.0,-165.0,-870.0,13.5625,22.6875,45.0625,-7.875,-3.4375,-21.5625,329.375,-26.8125,171.9375,-0.25616455078125,0.93603515625,-0.00030517578125,0.2413330078125,39.0,-40.0,0.0,-442.0,-121.0,-866.0,540,577.753403536193,-60.62090558406736,
201,9.566956520080566,0.04900479316711426,20.406167139402843,21.009816400661066,102391.75,-409.0,-175.0,-925.0,11.6875,22.25,44.75,-3.0625,-0.5625,-9.0625,328.3125,-26.75,171.8125,-0.26458740234375,0.9339599609375,0.000244140625,0.2410888671875,24.0,-53.0,-59.0,-441.0,-124.0,-866.0,573,576.8027228289544,-52.3766743488771,
202,9.612961292266846,0.0460047721862793,21.736875382207526,21.013295888593564,102391.75,-380.0,-173.0,-929.0,12.875,21.5625,45.0625,0.1875,-1.375,-4.3125,328.125,-26.75,171.6875,-0.26629638671875,0.9332275390625,0.0001220703125,0.2412109375,60.0,-48.0,-62.0,-441.0,-125.0,-866.0,564,574.2421782631636,-53.032987106538314,
203,9.656965494155884,0.044004201889038086,22.72510253728998,21.021096132408232,102389.0,-387.0,-203.0,-877.0,12.0625,22.0,44.0,0.375,-1.3125,-6.25,327.9375,-26.75,171.625,-0.2679443359375,0.9326171875,-0.00018310546875,0.24176025390625,69.0,-73.0,-11.0,-442.0,-127.0,-866.0,564,572.193742610531,-51.73657173465408,
204,9.710970878601074,0.05400538444519043,18.51667218506501,21.007168340863924,102389.0,-441.0,-214.0,-839.0,11.6875,22.25,44.0,2.375,-2.375,-0.625,327.625,-26.875,171.375,-0.27001953125,0.93157958984375,-0.001220703125,0.24334716796875,2.0,-83.0,25.0,-444.0,-131.0,-864.0,569,571.5549940884248,-43.7547567862303,
205,9.76097583770752,0.05000495910644531,19.998016554144257,21.001998510032852,102389.0,-439.0,-195.0,-841.0,11.6875,23.0625,45.0625,4.375,1.125,9.6875,327.9375,-26.9375,171.0625,-0.26776123046875,0.93194580078125,-0.00390625,0.24456787109375,5.0,-60.0,21.0,-445.0,-135.0,-863.0,578,572.8439952707398,-29.84831203253479,
206,9.806980609893799,0.0460047721862793,21.736875382207526,21.005445834386208,102389.0,-438.0,-194.0,-858.0,12.5,23.0625,44.25,4.1875,3.5,13.6875,328.375,-26.875,170.75,-0.2640380859375,0.93292236328125,-0.00738525390625,0.24468994140625,5.0,-54.0,4.0,-443.0,-140.0,-863.0,587,575.6751962165919,-11.570357197632969,
207,9.856985569000244,0.05000495910644531,19.998016554144257,21.000335097476988,102389.0,-459.0,-182.0,-874.0,12.5,22.6875,45.5,4.25,3.1875,21.375,329.375,-26.875,170.625,-0.255615234375,0.9351806640625,-0.0103759765625,0.244873046875,-15.0,-50.0,-3.0,-443.0,-142.0,-862.0,601,580.7401569732735,11.001548053535842,
208,9.904990434646606,0.048004865646362305,20.83122172170432,20.999515483875488,102389.0,-438.0,-161.0,-854.0,12.0625,23.5,44.75,4.5,2.625,27.75,330.4375,-27.0,170.875,-0.2471923828125,0.93743896484375,-0.010498046875,0.24505615234375,6.0,-23.0,7.0,-445.0,-138.0,-862.0,587,581.9921255786188,14.01724556414072,
209,9.948994636535645,0.044004201889038086,22.72510253728998,21.007147720483264,102389.0,-455.0,-139.0,-864.0,13.1875,23.0625,44.25,6.0625,3.25,28.4375,331.8125,-27.0,171.25,-0.23565673828125,0.9405517578125,-0.0103759765625,0.244384765625,-7.0,-9.0,-10.0,-446.0,-132.0,-863.0,573,580.1937004628951,3.039917419220764,
210,9.996999502182007,0.048004865646362305,20.83122172170432,21.006302936612542,102389.0,-428.0,-149.0,-853.0,13.1875,22.25,45.0625,7.125,3.0,28.625,332.75,-27.0625,171.5,-0.22833251953125,0.9423828125,-0.01055908203125,0.24420166015625,18.0,-20.0,9.0,-446.0,-128.0,-863.0,554,574.954960370316,-19.39393734680265,
211,10.044004201889038,0.04700469970703125,21.274468430449602,21.007557918017987,102388.75,-472.0,-148.0,-845.0,13.5625,22.6875,44.75,7.5,3.5,25.375,334.0625,-27.0625,171.6875,-0.21728515625,0.94512939453125,-0.0115966796875,0.24371337890625,-25.0,-23.0,18.0,-446.0,-125.0,-863.0,554,570.7639682962529,-33.34737559182636,
212,10.09100890159607,0.04700469970703125,21.274468430449602,21.00880120782259,102388.75,-430.0,-128.0,-854.0,14.6875,22.0,42.75,10.1875,3.375,28.5,335.5625,-27.0625,172.0,-0.20513916015625,0.94793701171875,-0.01263427734375,0.2431640625,16.0,-7.0,10.0,-447.0,-121.0,-864.0,573,571.2111746370023,-24.77508503782708,
213,10.1380136013031,0.04700469970703125,21.274468430449602,21.010032968649973,102388.75,-473.0,-116.0,-828.0,14.6875,22.25,44.0,12.75,4.3125,22.3125,336.875,-27.125,172.0,-0.194091796875,0.95025634765625,-0.0152587890625,0.2430419921875,-26.0,4.0,35.0,-447.0,-120.0,-864.0,545,565.9689397096018,-42.12522032385782,
214,10.185018301010132,0.04700469970703125,21.274468430449602,21.011253360121685,102388.75,-463.0,-122.0,-842.0,14.6875,22.25,44.0,17.6875,5.5,24.6875,337.9375,-27.0625,171.875,-0.18511962890625,0.9520263671875,-0.0186767578125,0.242919921875,-16.0,0.0,21.0,-446.0,-123.0,-864.0,559,564.5751517676815,-39.6305957729113,
215,10.23002290725708,0.04500460624694824,22.219947765187033,21.016570730010883,102388.75,-467.0,-125.0,-833.0,15.0,22.0,44.0,25.4375,9.0,20.1875,339.3125,-26.875,171.375,-0.1737060546875,0.95428466796875,-0.02587890625,0.241943359375,-23.0,5.0,30.0,-444.0,-130.0,-864.0,559,563.4601214141453,-36.659659860763576,
216,10.279027700424194,0.04900479316711426,20.406167139402843,21.013660658885676,102388.75,-470.0,-106.0,-889.0,15.0,22.6875,44.0,33.375,5.125,21.125,340.6875,-26.625,170.4375,-0.162353515625,0.95611572265625,-0.036376953125,0.24102783203125,-30.0,38.0,-25.0,-440.0,-144.0,-864.0,512,553.1680971313162,-71.33188143225136,
217,10.324032306671143,0.04500460624694824,22.219947765187033,21.018919115526188,102388.75,-458.0,-130.0,-866.0,14.0,23.0625,42.375,31.0,3.4375,12.9375,341.9375,-26.625,169.25,-0.15179443359375,0.95703125,-0.0482177734375,0.24224853515625,-17.0,31.0,-5.0,-440.0,-162.0,-860.0,536,549.734477705053,-72.32447400522128,
218,10.374037265777588,0.05000495910644531,19.998016554144257,21.013998158571273,102388.75,-483.0,-149.0,-867.0,14.6875,24.1875,42.375,21.8125,3.3125,10.375,342.75,-26.625,168.3125,-0.14508056640625,0.95733642578125,-0.05755615234375,0.2432861328125,-43.0,19.0,1.0,-440.0,-177.0,-858.0,512,542.1875821640424,-88.04416759648251,
219,10.42104196548462,0.04700469970703125,21.274468430449602,21.015173024477466,102388.75,-480.0,-144.0,-844.0,15.375,25.6875,40.0,20.5,1.375,15.25,343.75,-26.875,167.8125,-0.13671875,0.95770263671875,-0.06280517578125,0.245361328125,-9.0,35.0,25.0,-444.0,-183.0,-854.0,512,536.1500657312339,-96.12432462680705,
220,10.471046924591064,0.05000495910644531,19.998016554144257,21.010315547658752,102388.75,-437.0,-161.0,-787.0,15.375,26.0625,41.5625,19.875,4.75,13.375,344.6875,-26.875,167.1875,-0.12872314453125,0.958251953125,-0.0697021484375,0.24554443359375,3.0,32.0,81.0,-443.0,-193.0,-852.0,494,527.7200525849871,-110.61616819150501,
221,10.518051624298096,0.04700469970703125,21.274468430449602,21.011496035012858,102388.75,-443.0,-207.0,-792.0,15.75,27.5625,39.1875,22.875,7.875,11.5625,345.375,-26.6875,166.625,-0.12286376953125,0.95880126953125,-0.0762939453125,0.24444580078125,-1.0,-5.0,59.0,-441.0,-202.0,-852.0,517,525.5760420679898,-97.61547136488645,
222,10.566056489944458,0.048004865646362305,20.83122172170432,21.01067699299864,102388.75,-445.0,-274.0,-787.0,15.75,28.25,39.5625,28.25,16.75,17.1875,346.5,-26.1875,165.75,-0.11322021484375,0.960205078125,-0.08636474609375,0.2403564453125,-13.0,-76.0,73.0,-433.0,-216.0,-852.0,517,523.8608336543919,-85.2383544444273,
223,10.610060691833496,0.044004201889038086,22.72510253728998,21.017787407346486,102388.75,-455.0,-254.0,-750.0,15.75,28.0,38.75,42.25,18.0,20.375,347.6875,-25.75,164.75,-0.1004638671875,0.96136474609375,-0.10113525390625,0.2353515625,-15.0,0.0,111.0,-423.0,-237.0,-851.0,456,510.2886669235135,-129.87645967802302,
224,10.65906572341919,0.04900503158569336,20.4060678596102,21.01497502805019,102388.75,-507.0,-206.0,-813.0,15.375,28.375,39.1875,71.0,33.1875,13.1875,349.25,-24.5,162.5625,-0.0904541015625,0.9622802734375,-0.12017822265625,0.226806640625,-100.0,60.0,38.0,-406.0,-267.0,-851.0,479,504.03093353881087,-129.44031416153652,
225,10.70507025718689,0.046004533767700195,21.736988033603343,21.018077844836693,102388.75,-528.0,-298.0,-737.0,15.375,30.875,37.5625,99.9375,21.6875,8.9375,350.5,-23.6875,159.375,-0.079345703125,0.96026611328125,-0.1495361328125,0.221923828125,-134.0,17.0,102.0,-394.0,-316.0,-840.0,503,503.82474683104874,-104.44862692909192,
226,10.754075288772583,0.04900503158569336,20.4060678596102,21.015288988719227,102388.75,-543.0,-405.0,-699.0,15.0,33.1875,34.75,106.875,26.6875,-6.0,351.9375,-22.625,154.375,-0.067138671875,0.954833984375,-0.19342041015625,0.21539306640625,-165.0,-14.0,116.0,-377.0,-390.0,-816.0,447,492.45979746483897,-129.94168714085566,
227,10.800079822540283,0.046004533767700195,21.736988033603343,21.018363172301758,102392.75,-507.0,-510.0,-765.0,14.25,37.0,31.5625,103.1875,27.0625,-3.0625,353.0625,-21.25,149.5625,-0.05718994140625,0.94793701171875,-0.236328125,0.20562744140625,-151.0,-47.0,22.0,-355.0,-462.0,-788.0,395,472.9678379718712,-188.69264776270893,
228,10.847084522247314,0.04700469970703125,21.274468430449602,21.019472977496687,102392.75,-358.0,-490.0,-637.0,13.5,39.6875,28.5625,109.75,-5.4375,-7.25,354.125,-20.8125,144.375,-0.0479736328125,0.936767578125,-0.2799072265625,0.2044677734375,-9.0,42.0,107.0,-349.0,-533.0,-745.0,329,444.17427037749695,-273.4676871674734,
229,10.896089553833008,0.04900503158569336,20.4060678596102,21.016714195364038,102392.75,-348.0,-572.0,-624.0,13.0625,43.0,25.0,99.5625,-1.375,-27.5625,114.6875,-20.5,139.0,-0.04669189453125,0.922607421875,-0.32244873046875,0.2064208984375,-4.0,30.0,68.0,-344.0,-602.0,-693.0,311,417.53941630199756,-327.4766776730699,
230,10.941093921661377,0.04500436782836914,22.220065479280787,21.02166398047656,102392.75,-338.0,-632.0,-594.0,10.875,43.875,21.1875,108.8125,-9.125,-30.75,120.0,-19.75,134.625,-0.0499267578125,0.90997314453125,-0.35662841796875,0.2056884765625,-6.0,24.0,53.0,-332.0,-656.0,-648.0,226,379.2315330415981,-432.2220770222001,
231,10.988098382949829,0.04700446128845215,21.27457633996277,21.022745879163352,102392.75,-294.0,-538.0,-327.0,11.25,46.5,15.5625,121.8125,-4.375,-26.5,125.5,-19.125,128.4375,-0.051025390625,0.8895263671875,-0.40362548828125,0.20782470703125,27.0,186.0,249.0,-322.0,-725.0,-576.0,203,343.9852264332785,-495.7477097458459,
232,11.037103652954102,0.04900527000427246,20.405968580783583,21.020007358353002,102392.75,-224.0,-715.0,-508.0,11.1875,47.75,10.5,131.25,2.3125,-23.3125,131.8125,-18.0,122.0625,-0.04656982421875,0.86614990234375,-0.45428466796875,0.20306396484375,79.0,74.0,-13.0,-303.0,-790.0,-495.0,137,302.5881811466228,-565.5475288880311,
233,11.08210802078247,0.04500436782836914,22.220065479280787,21.024880786493963,102392.75,-118.0,-771.0,-430.0,11.1875,47.75,10.5,119.875,4.75,-18.1875,135.5,-17.3125,117.125,-0.04302978515625,0.84619140625,-0.49169921875,0.20086669921875,172.0,61.0,-2.0,-291.0,-833.0,-427.0,114,264.8705449172982,-620.055692458282,
234,11.128112554550171,0.046004533767700195,21.736988033603343,21.027824696499838,102392.75,-71.0,-833.0,-435.0,9.6875,47.875,5.75,85.8125,15.1875,-35.25,139.75,-15.9375,112.125,-0.04205322265625,0.82421875,-0.5302734375,0.1942138671875,198.0,39.0,-80.0,-270.0,-873.0,-355.0,81,228.09643593383856,-655.9162273506032,
235,11.175117254257202,0.04700469970703125,21.274468430449602,21.02886212764129,102393.5,-40.0,-1096.0,-467.0,7.375,48.75,2.75,61.125,-1.3125,-45.625,142.8125,-14.3125,109.375,-0.04803466796875,0.81170654296875,-0.5517578125,0.185302734375,202.0,-200.0,-151.0,-243.0,-895.0,-316.0,,228.09643593383856,-655.9162273506032,
236,11.21912169456482,0.04400444030761719,22.724979411382254,21.035514759977318,102393.5,-170.0,-952.0,-257.0,6.6875,48.6875,-2.375,47.0625,-17.5625,-35.1875,144.5625,-12.6875,106.4375,-0.06231689453125,0.79638671875,-0.5731201171875,0.18292236328125,45.0,-34.0,13.0,-215.0,-917.0,-270.0,24,187.27714874707087,-710.2564740618017,
237,11.26612663269043,0.04700493812561035,21.274360522031113,21.03651128084318,102393.5,-67.0,-1054.0,-269.0,4.75,47.6875,-5.25,14.75,12.25,-20.375,146.25,-11.5625,105.0,-0.067626953125,0.7890625,-0.58428955078125,0.1771240234375,129.0,-127.0,-20.0,-196.0,-927.0,-249.0,6,151.02171899765668,-722.4673959234833,
238,11.360135793685913,0.04700469970703125,21.274468430449602,20.9504537905509,102393.5,-66.0,-927.0,-93.0,3.875,48.5,-6.25,-11.5,18.75,-0.3125,148.5,-10.5625,106.0,-0.06524658203125,0.794677734375,-0.5809326171875,0.16351318359375,113.0,0.0,172.0,-180.0,-926.0,-266.0,67,134.21737519812535,-649.4746130702968,
239,11.405140399932861,0.04500460624694824,22.219947765187033,20.955463205118185,102393.5,-91.0,-995.0,-217.0,3.5625,48.75,-5.875,17.125,6.375,-2.875,149.75,-10.3125,105.625,-0.06060791015625,0.79296875,-0.58526611328125,0.15789794921875,84.0,-66.0,42.0,-176.0,-929.0,-259.0,53,117.9739001585003,-591.7655238373551,
240,11.453145027160645,0.0480046272277832,20.831325181528314,20.954942893925665,102393.5,-115.0,-915.0,-264.0,4.25,47.6875,-6.0,-3.9375,0.3125,-9.25,150.875,-9.875,105.375,-0.05926513671875,0.7921142578125,-0.5880126953125,0.152587890625,53.0,15.0,-7.0,-168.0,-931.0,-256.0,43,102.97912012680024,-535.8846468430504,
241,11.49714970588684,0.04400467872619629,22.724856286808727,20.96171713556115,102393.5,-50.0,-897.0,-293.0,2.25,48.375,-6.375,-5.625,-8.0,-17.4375,151.25,-9.375,105.5625,-0.0634765625,0.7928466796875,-0.587158203125,0.15032958984375,9.0,-34.0,1.0,-160.0,-931.0,-260.0,29,88.18329610144019,-495.9543123986841,
242,11.54215383529663,0.04500412940979004,22.22018319462177,20.96662403337138,102393.25,-141.0,-1026.0,-315.0,2.6875,48.75,-6.0,-0.0625,5.75,-8.875,151.6875,-8.6875,105.5625,-0.07061767578125,0.79229736328125,-0.58770751953125,0.1480712890625,6.0,-92.0,-55.0,-148.0,-933.0,-260.0,85,87.54663688115215,-399.5927868204164,
243,11.591158866882324,0.04900503158569336,20.4060678596102,20.964254117358998,102393.25,-155.0,-1042.0,-165.0,2.0,47.6875,-5.5625,-11.9375,-4.9375,-5.875,152.125,-8.5,105.9375,-0.07049560546875,0.7943115234375,-0.585693359375,0.14508056640625,9.0,-105.0,108.0,-143.0,-932.0,-266.0,95,89.03730950492172,-313.59047611291214,
244,11.641164064407349,0.050005197525024414,19.9979212060819,20.96010318641807,102393.25,-173.0,-1003.0,-266.0,1.1875,48.75,-6.75,-7.1875,10.5,-10.625,152.8125,-7.9375,106.375,-0.07354736328125,0.7969970703125,-0.58294677734375,0.1397705078125,-48.0,-29.0,10.0,-134.0,-931.0,-275.0,39,79.02984760393738,-290.89806780408003,
245,11.691169023513794,0.05000495910644531,19.998016554144257,20.955988191364373,102393.25,-130.0,-1019.0,-200.0,1.1875,49.1875,-5.5625,-4.75,-3.8125,-3.875,153.0625,-7.6875,106.625,-0.07574462890625,0.7979736328125,-0.58148193359375,0.13916015625,74.0,-22.0,88.0,-131.0,-930.0,-279.0,76,78.42387808314992,-235.14209194486696,
246,11.74117398262024,0.05000495910644531,19.998016554144257,20.951908247347255,102393.25,-49.0,-989.0,-210.0,1.1875,48.0,-4.375,-2.125,6.125,-7.8125,153.5,-7.4375,106.8125,-0.07574462890625,0.7987060546875,-0.5810546875,0.13677978515625,74.0,-46.0,69.0,-126.0,-930.0,-282.0,10,64.73910246651994,-242.84734742011676,
247,11.78817868232727,0.04700469970703125,21.274468430449602,20.953194437941473,102393.25,-156.0,-895.0,-219.0,1.5625,48.0,-4.375,-7.375,-15.125,-17.9375,153.5625,-7.0,106.9375,-0.081787109375,0.7987060546875,-0.58038330078125,0.13616943359375,-51.0,72.0,39.0,-120.0,-931.0,-283.0,34,58.591281973215956,-220.43620053626677,
248,11.838183641433716,0.05000495910644531,19.998016554144257,20.94915972852444,102393.25,103.0,-1135.0,-143.0,1.5625,48.75,-5.1875,-32.125,-1.375,-6.25,153.6875,-6.5625,107.875,-0.08721923828125,0.8031005859375,-0.573974609375,0.13385009765625,216.0,-208.0,156.0,-112.0,-927.0,-299.0,39,54.67302557857276,-192.02043167770466,
249,11.885188341140747,0.04700469970703125,21.274468430449602,20.95044629104303,102393.25,88.0,-1156.0,-216.0,-0.1875,47.25,-4.0,-48.8125,15.5625,-1.375,153.8125,-6.3125,110.0625,-0.08966064453125,0.81396484375,-0.55914306640625,0.12969970703125,197.0,-241.0,117.0,-108.0,-915.0,-334.0,10,45.738420462858215,-191.6321402367243,
250,11.930192947387695,0.04500460624694824,22.219947765187033,20.955235267568867,102395.0,-138.0,-1027.0,-372.0,0.5,46.5,-3.1875,-47.8125,-9.0,20.875,153.5625,-6.625,112.5,-0.08636474609375,0.8262939453125,-0.5418701171875,0.1270751953125,-14.0,-110.0,76.0,-114.0,-899.0,-373.0,6,37.790736370286574,-188.6251372676094,
251,11.976197242736816,0.046004295349121094,21.737100686166794,20.95823865561529,102395.0,-208.0,-766.0,-327.0,0.5,47.6875,-0.75,-42.375,-18.75,46.75,150.25,-8.5625,114.6875,-0.079345703125,0.83685302734375,-0.5235595703125,0.1387939453125,-47.0,121.0,112.0,-146.0,-880.0,-405.0,20,34.23258909622926,-166.36887092456627,
252,12.115211248397827,0.0480046272277832,20.831325181528314,20.80029764510509,102395.0,-111.0,-913.0,-544.0,3.75,46.5,3.875,-40.0,40.1875,25.4375,151.5625,-10.9375,122.75,-0.0189208984375,0.87493896484375,-0.46905517578125,0.1187744140625,77.0,-118.0,19.0,-186.0,-809.0,-521.0,10,29.38607127698341,-153.2869744778094,
253,12.244224071502686,0.044004201889038086,22.72510253728998,20.662803826731203,102395.0,-3.0,-892.0,-498.0,8.25,46.5,9.375,-56.0625,30.3125,38.6875,152.8125,-12.125,127.75,0.026611328125,0.89373779296875,-0.435302734375,0.1051025390625,202.0,-134.0,88.0,-206.0,-757.0,-587.0,15,26.50885702158673,-135.7065773773759,
254,12.289228677749634,0.04500460624694824,22.219947765187033,20.668506271665514,102395.0,-49.0,-779.0,-479.0,9.0625,45.0,11.0,-86.8125,45.9375,29.0,152.5625,-12.375,132.0,0.043701171875,0.9083251953125,-0.404052734375,0.0986328125,160.0,-67.0,161.0,-210.0,-711.0,-641.0,34,28.007085617269386,-101.9071496746251,
255,12.338233470916748,0.04900479316711426,20.406167139402843,20.667464317406303,102392.0,-89.0,-835.0,-448.0,9.5,43.0625,15.375,-85.0625,43.5625,35.5625,7.25,-11.6875,136.9375,0.05877685546875,0.92437744140625,-0.36688232421875,0.08673095703125,110.0,-180.0,253.0,-199.0,-655.0,-701.0,29,28.205668493815512,-80.71525666573537,
256,12.384238243103027,0.0460047721862793,21.736875382207526,20.671436948701334,102392.0,-109.0,-723.0,-539.0,9.5,43.0625,15.375,-70.375,42.625,49.125,9.1875,-11.5,140.4375,0.0750732421875,0.9339599609375,-0.34027099609375,0.07977294921875,86.0,-112.0,201.0,-196.0,-611.0,-741.0,81,38.76453479505241,-18.66885313911289,
257,12.428242683410645,0.04400444030761719,22.724979411382254,20.678707887080964,102392.0,-124.0,-653.0,-552.0,9.0625,42.375,18.875,-45.125,42.5625,53.9375,12.1875,-11.6875,143.1875,0.10052490234375,0.94061279296875,-0.31561279296875,0.07403564453125,74.0,-86.0,222.0,-198.0,-567.0,-774.0,95,50.01162783604193,36.18290904758718,
258,12.473247051239014,0.04500436782836914,22.220065479280787,20.684269215558583,102392.0,-156.0,-636.0,-650.0,10.1875,41.1875,20.6875,-26.125,54.0625,53.125,14.0,-11.375,145.125,0.121337890625,0.9432373046875,-0.30224609375,0.06463623046875,34.0,-93.0,142.0,-191.0,-543.0,-793.0,175,75.00930226883355,140.03631978334434,
259,12.51725149154663,0.04400444030761719,22.724979411382254,20.69144333921168,102392.0,-109.0,-599.0,-776.0,11.0,40.0625,23.75,-8.875,50.4375,72.625,17.6875,-10.9375,146.6875,0.1541748046875,0.942138671875,-0.29278564453125,0.0533447265625,77.0,-74.0,17.0,-187.0,-524.0,-806.0,193,98.60744181506684,219.28250289369083,
260,12.565256357192993,0.048004865646362305,20.83122172170432,20.69197735477659,102392.0,-99.0,-602.0,-842.0,11.0,38.5625,23.375,12.1875,50.5,71.4375,21.8125,-10.875,147.3125,0.18798828125,0.9368896484375,-0.2916259765625,0.0423583984375,77.0,-74.0,-48.0,-185.0,-520.0,-810.0,221,123.08595345205347,277.4094629804303,
261,12.612261056900024,0.04700469970703125,21.274468430449602,20.694148243721127,102392.0,-101.0,-589.0,-850.0,12.75,38.5,24.6875,36.5625,36.9375,65.4375,24.9375,-10.9375,146.875,0.20648193359375,0.93206787109375,-0.2955322265625,0.03643798828125,87.0,-77.0,-45.0,-186.0,-525.0,-806.0,348,168.0687627616428,413.3246416983028,
262,12.656265497207642,0.04400444030761719,22.724979411382254,20.701209219876528,102392.0,-106.0,-557.0,-804.0,14.5,37.75,24.6875,55.0,25.0,60.1875,28.5625,-11.4375,145.1875,0.2347412109375,0.92047119140625,-0.31121826171875,0.0286865234375,88.0,-9.0,-15.0,-195.0,-548.0,-789.0,404,215.25501020931426,545.1210137083867,
263,12.704270362854004,0.048004865646362305,20.83122172170432,20.701700490331604,102391.5,-132.0,-561.0,-869.0,15.25,38.375,24.25,69.4375,22.0,55.1875,31.875,-12.0625,142.5625,0.25885009765625,0.90631103515625,-0.33343505859375,0.0201416015625,72.0,21.0,-107.0,-205.0,-582.0,-761.0,447,261.6040081674514,629.1980615756646,
264,12.751274824142456,0.04700446128845215,21.27457633996277,20.703812257277924,102391.5,-139.0,-531.0,-838.0,16.0,38.375,21.5,58.4375,22.25,56.5,35.1875,-13.0,140.1875,0.2828369140625,0.89117431640625,-0.3543701171875,0.01422119140625,82.0,79.0,-104.0,-221.0,-611.0,-733.0,559,321.0832065339612,756.4373985181519,
265,12.798279523849487,0.04700469970703125,21.274468430449602,20.705908126648954,102391.5,-183.0,-502.0,-844.0,18.25,39.875,21.5,39.75,30.125,51.4375,38.375,-13.625,138.5,0.30572509765625,0.87786865234375,-0.3685302734375,0.00640869140625,47.0,127.0,-130.0,-231.0,-630.0,-714.0,503,357.466565227169,759.9572419969963,
266,12.847284317016602,0.04900479316711426,20.406167139402843,20.704764792017194,102391.5,-228.0,-516.0,-750.0,19.75,39.1875,19.875,27.375,21.5,44.0,41.25,-14.3125,137.5625,0.32659912109375,0.86669921875,-0.3770751953125,0.00079345703125,14.0,124.0,-49.0,-242.0,-640.0,-701.0,522,390.3732521817352,742.2656643973742,
267,12.897289514541626,0.050005197525024414,19.9979212060819,20.702024227568042,102391.5,-264.0,-550.0,-719.0,21.25,39.5,20.25,22.1875,27.875,42.6875,43.4375,-14.6875,137.1875,0.3421630859375,0.85894775390625,-0.380859375,-0.00408935546875,-10.0,106.0,-22.0,-248.0,-644.0,-696.0,587,429.69860174538815,751.0975799130111,
268,12.941293954849243,0.04400444030761719,22.724979411382254,20.708902906851712,102391.5,-286.0,-536.0,-669.0,22.375,39.1875,19.875,25.625,25.25,44.0625,183.0,-15.125,136.6875,0.36187744140625,0.84869384765625,-0.3856201171875,-0.0101318359375,-30.0,112.0,19.0,-256.0,-649.0,-688.0,642,472.15888139631056,793.859860104158,
269,12.989298582077026,0.0480046272277832,20.831325181528314,20.70935534357284,102391.5,-279.0,-482.0,-662.0,23.1875,38.25,19.5625,26.8125,26.4375,39.5,184.6875,-15.75,136.0,0.3809814453125,0.83740234375,-0.3916015625,-0.01611328125,-13.0,172.0,16.0,-266.0,-655.0,-679.0,639,505.5271051170485,774.1087518946622,
270,13.035303354263306,0.0460047721862793,21.736875382207526,20.712981712979794,102391.5,-260.0,-463.0,-743.0,23.1875,38.25,19.5625,25.6875,24.25,31.625,186.4375,-15.9375,135.4375,0.39398193359375,0.8292236328125,-0.39581298828125,-0.02239990234375,8.0,197.0,-70.0,-269.0,-661.0,-672.0,642,532.8216840936389,737.946773880523,
271,13.07730746269226,0.04200410842895508,23.807194995969986,20.722920277979647,102389.75,-274.0,-508.0,-756.0,22.75,37.5625,18.75,19.3125,18.125,20.5625,187.9375,-16.125,134.8125,0.40447998046875,0.8216552734375,-0.400634765625,-0.02789306640625,-1.0,159.0,-92.0,-272.0,-667.0,-664.0,656,557.4573472749112,707.6586265467362,
272,13.125312089920044,0.0480046272277832,20.831325181528314,20.723316758988926,102389.75,-244.0,-425.0,-853.0,23.1875,38.25,18.5,10.375,13.0,14.875,188.6875,-16.1875,134.5,0.40887451171875,0.81829833984375,-0.40277099609375,-0.03070068359375,28.0,245.0,-192.0,-273.0,-671.0,-660.0,670,579.9658778199289,659.9034050657144,
273,13.16931676864624,0.04400467872619629,22.724856286808727,20.730004813155045,102389.75,-265.0,-450.0,-801.0,24.25,37.5625,18.5,-1.875,-3.5625,0.1875,188.5625,-16.3125,134.5,0.410888671875,0.8170166015625,-0.40338134765625,-0.03033447265625,11.0,220.0,-141.0,-276.0,-670.0,-659.0,662,596.3727022559432,602.4912695388368,
274,13.21532130241394,0.046004533767700195,21.736988033603343,20.733510274165678,102389.75,-307.0,-449.0,-737.0,24.25,36.375,19.1875,-10.5,-10.9375,-7.25,187.8125,-16.375,134.6875,0.407470703125,0.8194580078125,-0.40216064453125,-0.02752685546875,-30.0,218.0,-75.0,-277.0,-668.0,-661.0,667,610.4981618047545,543.4020046674017,
275,13.26132607460022,0.0460047721862793,21.736875382207526,20.736991040942353,102389.75,-296.0,-440.0,-726.0,24.75,37.5,18.875,-19.9375,-9.5,-10.0,186.625,-16.4375,135.1875,0.40362548828125,0.822998046875,-0.3990478515625,-0.02313232421875,-18.0,221.0,-59.0,-278.0,-662.0,-667.0,707,629.7985294438037,518.6275409740817,
276,13.30733060836792,0.046004533767700195,21.736988033603343,20.74044811259484,102389.75,-297.0,-540.0,-768.0,25.0625,36.6875,18.875,-28.0625,-13.875,-26.4375,185.25,-16.1875,136.0625,0.39483642578125,0.83074951171875,-0.3935546875,-0.01812744140625,-21.0,132.0,-97.0,-275.0,-654.0,-676.0,707,645.2388235550429,482.02713044553025,
277,13.351334810256958,0.044004201889038086,22.72510253728998,20.746989266361517,102389.75,-334.0,-562.0,-723.0,24.375,37.5,19.1875,-30.0625,-18.625,-27.0625,183.6875,-15.9375,136.875,0.3841552734375,0.838623046875,-0.385986328125,-0.01263427734375,-65.0,78.0,-29.0,-270.0,-644.0,-688.0,667,649.5910588440344,405.4027029981727,
278,13.397339582443237,0.0460047721862793,21.736875382207526,20.750388410271366,102389.75,-314.0,-575.0,-697.0,24.375,37.75,19.1875,-29.4375,-19.625,-24.875,47.3125,-15.8125,137.875,0.3717041015625,0.84783935546875,-0.378173828125,-0.0047607421875,-45.0,54.0,-29.0,-267.0,-632.0,-700.0,644,648.4728470752275,319.46087642464363,
279,13.443344116210938,0.046004533767700195,21.736988033603343,20.75376465767636,102393.75,-318.0,-564.0,-711.0,24.375,37.75,19.1875,-27.875,-22.25,-23.75,45.875,-16.0,138.75,0.36212158203125,0.8546142578125,-0.37213134765625,0.00360107421875,-27.0,51.0,1.0,-270.0,-621.0,-709.0,587,636.178277660182,202.11931948908477,
280,13.487348318099976,0.044004201889038086,22.72510253728998,20.760196400076726,102393.75,-280.0,-601.0,-676.0,22.75,37.0625,20.875,-24.5625,-25.875,-28.375,44.375,-16.125,139.375,0.3515625,0.86090087890625,-0.36761474609375,0.01116943359375,-7.0,11.0,38.0,-272.0,-613.0,-715.0,545,617.9426221281456,78.81402723122257,
281,13.53035283088684,0.043004512786865234,23.253373546076485,20.76812064786207,102393.75,-252.0,-574.0,-708.0,22.375,37.5,20.375,-16.6875,-24.3125,-34.75,42.0,-15.9375,139.8125,0.33404541015625,0.869384765625,-0.36358642578125,0.01837158203125,24.0,12.0,-4.0,-269.0,-607.0,-720.0,559,606.1540977025165,8.226629379738377,
282,13.577357530593872,0.04700469970703125,21.274468430449602,20.76987361970613,102393.75,-261.0,-673.0,-704.0,23.25,37.5,22.375,-12.5,-31.375,-32.5,39.75,-16.0,139.8125,0.31689453125,0.875732421875,-0.36322021484375,0.02630615234375,11.0,-58.0,30.0,-270.0,-607.0,-720.0,512,587.3232781620133,-73.54183166299542,
283,13.624362230300903,0.04700469970703125,21.274468430449602,20.771614495877195,102393.75,-237.0,-645.0,-688.0,21.25,37.5,21.5625,-14.125,-30.3125,-33.6875,37.8125,-16.125,139.8125,0.30206298828125,0.88092041015625,-0.3629150390625,0.0333251953125,36.0,-22.0,28.0,-272.0,-607.0,-720.0,550,579.8586225296106,-90.59478144954213,
284,13.66736650466919,0.04300427436828613,23.25350246433779,20.779423739238787,102393.75,-211.0,-624.0,-780.0,20.875,37.0625,21.1875,-15.125,-31.25,-40.0625,35.375,-16.0625,139.9375,0.28314208984375,0.8875732421875,-0.36102294921875,0.04071044921875,52.0,-20.0,-53.0,-271.0,-605.0,-721.0,484,560.6868980236884,-161.63777376844692,
285,13.71337103843689,0.046004533767700195,21.736988033603343,20.782636100283447,102393.75,-234.0,-551.0,-726.0,20.5,37.5625,19.6875,-7.6875,-36.25,-40.1875,33.125,-16.0625,139.75,0.265869140625,0.892333984375,-0.36175537109375,0.0474853515625,37.0,57.0,-7.0,-271.0,-608.0,-719.0,433,535.1495184189507,-240.33136199031134,
286,13.760375738143921,0.04700469970703125,21.274468430449602,20.78431617293739,102393.75,-209.0,-432.0,-716.0,19.75,39.0,19.6875,9.25,-38.125,-45.8125,30.3125,-16.0625,139.0,0.2432861328125,0.89630126953125,-0.3665771484375,0.0552978515625,86.0,170.0,-34.0,-272.0,-617.0,-711.0,418,511.71961473516063,-291.95683884210246,
287,13.807380437850952,0.04700469970703125,21.274468430449602,20.785984806591603,102393.75,-196.0,-497.0,-737.0,19.0625,39.0,18.5,32.5625,-59.375,-59.5625,160.8125,-16.1875,136.6875,0.21405029296875,0.89642333984375,-0.38262939453125,0.064697265625,69.0,141.0,-29.0,-274.0,-645.0,-685.0,306,470.5756917881285,-408.6284890419792,
288,13.854385375976562,0.04700493812561035,21.274360522031113,20.787641759943433,102386.25,-242.0,-542.0,-636.0,18.375,40.75,17.25,39.625,-59.625,-63.6875,159.75,-16.1875,134.875,0.19390869140625,0.8951416015625,-0.39520263671875,0.0704345703125,31.0,124.0,28.0,-273.0,-667.0,-664.0,259,428.26055343050285,-506.9482930255345,
289,13.902390003204346,0.0480046272277832,20.831325181528314,20.787792597775542,102386.25,-259.0,-642.0,-587.0,17.25,43.0,14.875,45.0625,-60.875,-61.875,158.5625,-15.9375,131.5,0.15997314453125,0.89068603515625,-0.41815185546875,0.07904052734375,9.0,63.0,38.0,-269.0,-705.0,-625.0,184,379.4084427444023,-609.0894751216626,
290,13.9443941116333,0.04200410842895508,23.807194995969986,20.796887815876026,102386.25,-223.0,-725.0,-522.0,15.5,44.1875,13.25,33.9375,-66.25,-50.625,156.375,-15.9375,128.4375,0.12847900390625,0.8846435546875,-0.43878173828125,0.0916748046875,45.0,13.0,64.0,-269.0,-738.0,-586.0,151,333.72675419552183,-704.7821535030033,
291,13.99039888381958,0.0460047721862793,21.736875382207526,20.799978786634338,102386.25,-225.0,-795.0,-426.0,14.6875,43.75,10.0625,12.125,-56.125,-47.8125,154.0,-15.875,126.625,0.10498046875,0.88092041015625,-0.4500732421875,0.101806640625,54.0,-47.0,88.0,-268.0,-756.0,-563.0,128,292.5814033564175,-742.6999955517663,
292,14.040403842926025,0.05000495910644531,19.998016554144257,20.797122594669407,102386.25,-185.0,-879.0,-397.0,14.6875,43.75,10.0625,0.9375,-47.125,-46.125,152.4375,-15.5,125.375,0.0780029296875,0.87933349609375,-0.45635986328125,0.1116943359375,76.0,-109.0,150.0,-262.0,-769.0,-547.0,39,241.86512268513405,-797.0050005272037,
293,14.087408542633057,0.04700469970703125,21.274468430449602,20.798715328890136,102386.25,-168.0,-906.0,-397.0,12.5625,44.875,9.6875,-7.8125,-37.3125,-39.125,150.75,-14.9375,124.875,0.0533447265625,0.87939453125,-0.457763671875,0.1192626953125,85.0,-129.0,144.0,-253.0,-777.0,-541.0,29,199.29209814810727,-818.7476937221095,
294,16.58365821838379,0.041004180908203125,24.387757000651224,17.72829590000153,102391.5,-301.0,-888.0,-169.0,7.1875,47.1875,-2.5,-24.0625,-42.5625,-28.625,134.375,-15.8125,107.9375,-0.08251953125,0.80108642578125,-0.5472412109375,0.22802734375,-18.0,50.0,98.0,-269.0,-896.0,-291.0,6,160.63367851848582,-843.5565837689702,
295,16.625662326812744,0.04200410842895508,23.807194995969986,17.743654009154508,102391.5,-414.0,-884.0,-26.0,5.6875,46.375,-3.1875,-19.375,-23.625,-31.3125,133.625,-15.0,108.4375,-0.103515625,0.80126953125,-0.54180908203125,0.23175048828125,-160.0,14.0,273.0,-254.0,-898.0,-299.0,1,128.70694281478865,-826.8624715117194,
296,16.671666860580444,0.046004533767700195,21.736988033603343,17.75467339141003,102391.5,-394.0,-968.0,-41.0,6.0625,47.1875,-1.5625,-12.6875,-7.25,-14.0625,133.75,-14.25,109.0,-0.11328125,0.8031005859375,-0.53802490234375,0.2294921875,-152.0,-69.0,267.0,-241.0,-898.0,-309.0,39,110.76555425183092,-739.4883269092236,
297,16.719671726226807,0.048004865646362305,20.83122172170432,17.76350665630115,102391.5,-475.0,-910.0,185.0,3.5,47.5,-0.0625,27.75,24.5625,-4.875,134.75,-13.75,108.5625,-0.1138916015625,0.8011474609375,-0.5423583984375,0.22589111328125,-241.0,-7.0,488.0,-233.0,-902.0,-303.0,109,110.41244340146474,-593.0618076106424,
298,16.765676259994507,0.046004533767700195,21.736988033603343,17.77440977499214,102391.5,-258.0,-759.0,-339.0,4.5625,48.25,-1.1875,46.375,18.8125,17.625,137.125,-13.75,106.625,-0.09832763671875,0.79345703125,-0.55908203125,0.219482421875,-24.0,152.0,-66.0,-233.0,-912.0,-273.0,100,108.3299547211718,-483.50285239324234,
299,16.809680938720703,0.04400467872619629,22.724856286808727,17.78736914103233,102391.5,-232.0,-663.0,-278.0,4.25,48.5625,-3.5625,37.5,-5.4375,-18.375,137.8125,-13.8125,105.125,-0.09344482421875,0.7861328125,-0.570068359375,0.21966552734375,-91.0,289.0,83.0,-234.0,-919.0,-248.0,95,105.66396377693745,-398.91913412852574,
300,16.85268497467041,0.04300403594970703,23.253631384028562,17.801317739630218,102395.75,-250.0,-796.0,-123.0,4.6875,47.375,-4.375,53.625,-8.3125,-30.5,139.8125,-12.3125,102.625,-0.10052490234375,0.7724609375,-0.58892822265625,0.21533203125,-40.0,138.0,86.0,-210.0,-934.0,-209.0,104,105.33117102154996,-320.68303531503176,
301,16.901690006256104,0.04900503158569336,20.4060678596102,17.808869993982015,102395.75,-313.0,-1140.0,-200.0,3.1875,47.375,-6.0,37.75,11.1875,-27.6875,142.0,-11.0,100.5,-0.10394287109375,0.7607421875,-0.6058349609375,0.20849609375,-106.0,-160.0,-8.0,-187.0,-946.0,-175.0,76,99.46493681723997,-280.4877829027286,
302,16.9526948928833,0.051004886627197266,19.605964567849295,17.814276839653314,102395.75,-301.0,-970.0,-174.0,3.1875,47.375,-7.0625,15.375,14.0,-20.625,144.5,-9.75,99.625,-0.1043701171875,0.75628662109375,-0.6151123046875,0.1968994140625,-125.0,-14.0,-23.0,-166.0,-952.0,-162.0,165,112.57194945379199,-172.99510125366456,
303,16.99869966506958,0.0460047721862793,21.736875382207526,17.824892842987925,102395.75,-231.0,-1040.0,-145.0,3.1875,47.375,-7.0625,3.6875,-1.125,-7.5,144.8125,-9.4375,99.4375,-0.10455322265625,0.75518798828125,-0.61749267578125,0.1937255859375,-51.0,-98.0,57.0,-160.0,-954.0,-159.0,123,114.6575595630336,-129.32915159484023,
304,17.047704458236694,0.04900479316711426,20.406167139402843,17.832312892608876,102395.75,-165.0,-1064.0,-191.0,2.375,47.75,-8.25,-7.125,6.5625,4.8125,145.25,-9.375,99.8125,-0.10369873046875,0.75732421875,-0.61541748046875,0.19232177734375,-4.0,-111.0,-26.0,-160.0,-953.0,-165.0,100,111.72604765042689,-115.42750568783279,
305,17.092709064483643,0.04500460624694824,22.219947765187033,17.843865407722237,102395.75,-204.0,-946.0,-154.0,1.0,47.0625,-9.0625,16.6875,-1.8125,-2.375,145.4375,-9.5625,99.375,-0.10052490234375,0.75531005859375,-0.618408203125,0.1922607421875,-41.0,7.0,3.0,-162.0,-954.0,-158.0,146,118.58083812034153,-61.87938731370524,
306,17.138713598251343,0.046004533767700195,21.736988033603343,17.854315508908503,102395.75,-239.0,-828.0,-85.0,1.6875,46.25,-9.0625,14.5,-11.75,-11.1875,145.5625,-9.3125,98.375,-0.10272216796875,0.7493896484375,-0.62481689453125,0.19366455078125,-71.0,111.0,81.0,-158.0,-957.0,-141.0,118,118.46467049627321,-50.00853670181719,
307,17.186718463897705,0.048004865646362305,20.83122172170432,17.86263041690489,102395.75,-186.0,-951.0,-94.0,0.5625,47.0625,-8.6875,-3.4375,-0.75,-17.25,146.125,-8.5,98.1875,-0.10882568359375,0.74755859375,-0.62689208984375,0.19073486328125,-40.0,-41.0,29.0,-145.0,-959.0,-138.0,118,118.37173639701857,-40.39401552686984,
308,17.232723236083984,0.0460047721862793,21.736875382207526,17.872973167413953,102392.0,-197.0,-994.0,-175.0,1.25,47.75,-9.0625,-8.3125,-5.875,-10.625,146.625,-8.0,98.4375,-0.11248779296875,0.74847412109375,-0.6260986328125,0.1875,-60.0,-33.0,-32.0,-137.0,-960.0,-142.0,,118.37173639701857,-40.39401552686984,
309,17.27572727203369,0.04300403594970703,23.253631384028562,17.886367105378866,102392.0,-192.0,-962.0,-185.0,0.5625,47.0625,-10.25,-5.125,-2.8125,0.625,146.5625,-7.9375,98.75,-0.11419677734375,0.7498779296875,-0.6241455078125,0.1871337890625,-52.0,4.0,-33.0,-135.0,-959.0,-147.0,128,120.29738911761487,-23.35952871381624,
310,17.324732065200806,0.04900479316711426,20.406167139402843,17.89349461990695,102392.0,-164.0,-995.0,-179.0,-1.5625,46.25,-8.6875,-14.75,-5.0625,1.5625,145.75,-8.0625,99.125,-0.11761474609375,0.75146484375,-0.6204833984375,0.19110107421875,-29.0,-27.0,20.0,-138.0,-958.0,-153.0,95,115.2379112940919,-39.33653299203536,
311,17.3737370967865,0.04900503158569336,20.4060678596102,17.90058168069802,102392.0,-237.0,-877.0,-13.0,-0.0625,46.25,-9.0625,-12.25,-2.0,-2.4375,145.5,-8.0625,99.8125,-0.11944580078125,0.75518798828125,-0.6156005859375,0.19091796875,-109.0,91.0,158.0,-138.0,-956.0,-165.0,137,119.59032903527353,-13.70608003764357,
312,17.422741889953613,0.04900479316711426,20.406167139402843,17.907629118922262,102392.0,-249.0,-867.0,-73.0,-0.0625,47.0625,-8.25,-0.8125,-13.0,-1.4375,145.0625,-8.0625,99.9375,-0.12249755859375,0.75537109375,-0.6141357421875,0.193115234375,-104.0,84.0,108.0,-138.0,-956.0,-167.0,170,129.6722632282188,30.181862815825543,
313,17.469746589660645,0.04700469970703125,21.274468430449602,17.91668805231823,102392.0,-222.0,-926.0,-100.0,-0.5,47.0625,-7.5,6.0,-8.6875,1.4375,144.5625,-8.1875,99.625,-0.1241455078125,0.75347900390625,-0.61505126953125,0.19647216796875,-81.0,29.0,62.0,-140.0,-956.0,-163.0,132,130.13781058257504,26.126344751286638,
314,17.515751361846924,0.0460047721862793,21.736875382207526,17.926721698274363,102392.0,-172.0,-954.0,-198.0,-0.0625,45.875,-7.0625,21.625,-17.875,4.0625,143.6875,-8.5,98.6875,-0.125,0.74774169921875,-0.61968994140625,0.203125,-18.0,-12.0,-59.0,-145.0,-958.0,-146.0,137,131.51024846606003,26.867578049656096,
315,17.55975580215454,0.04400444030761719,22.724979411382254,17.93874604801453,102392.0,-185.0,-954.0,-182.0,-0.5,47.0625,-8.6875,26.3125,-33.3125,6.5,142.75,-8.75,97.75,-0.12713623046875,0.7421875,-0.62359619140625,0.2099609375,-35.0,6.0,-50.0,-150.0,-960.0,-131.0,137,132.60819877284803,26.484242063020474,
316,17.60476016998291,0.04500436782836914,22.220065479280787,17.949690705744317,102398.5,-173.0,-991.0,-163.0,-1.25,46.6875,-8.25,18.25,-16.3125,16.0625,141.0,-9.5,96.5625,-0.1278076171875,0.7349853515625,-0.6278076171875,0.22210693359375,-10.0,-30.0,-52.0,-162.0,-960.0,-110.0,146,135.2865590182784,33.090061656529514,
317,17.652765035629272,0.048004865646362305,20.83122172170432,17.957526730808823,102398.5,-178.0,-955.0,-161.0,-0.5,45.875,-9.5,4.3125,-9.0625,22.375,139.4375,-10.5625,95.9375,-0.1239013671875,0.73193359375,-0.62847900390625,0.23211669921875,2.0,2.0,-60.0,-180.0,-958.0,-100.0,85,125.22924721462273,-15.42916909602948,
318,17.698769569396973,0.046004533767700195,21.736988033603343,17.967350710631056,102398.5,-156.0,-1014.0,-110.0,-0.5,45.875,-9.5,3.6875,2.1875,6.3125,138.875,-11.125,95.875,-0.1201171875,0.7322998046875,-0.62774658203125,0.23516845703125,33.0,-57.0,-11.0,-189.0,-956.0,-99.0,85,117.1833977716982,-47.32184188902853,
319,17.74377417564392,0.04500460624694824,22.219947765187033,17.978136829416872,102398.5,-308.0,-960.0,-79.0,0.1875,45.5625,-10.6875,25.8125,-12.1875,10.75,138.5,-11.3125,95.0,-0.11968994140625,0.72711181640625,-0.6322021484375,0.2393798828125,-115.0,-2.0,4.0,-192.0,-957.0,-84.0,118,117.34671821735856,-37.13167915691077,
320,17.78977870941162,0.046004533767700195,21.736988033603343,17.98785725371081,102398.5,-169.0,-932.0,-47.0,-0.5,44.375,-10.25,37.0,-4.0625,22.25,137.3125,-12.375,93.25,-0.11236572265625,0.71795654296875,-0.63995361328125,0.249755859375,41.0,24.0,7.0,-210.0,-956.0,-55.0,85,110.87737457388685,-57.83015239821107,
321,17.83578324317932,0.046004533767700195,21.736988033603343,17.99752753346312,102398.5,-119.0,-974.0,-80.0,0.5625,44.75,-11.5625,28.75,0.6875,17.125,136.8125,-13.125,92.0,-0.10345458984375,0.7103271484375,-0.64739990234375,0.2562255859375,105.0,-20.0,-50.0,-225.0,-953.0,-29.0,43,97.30189965910948,-105.28210907316848,
322,17.88178777694702,0.046004533767700195,21.736988033603343,18.007148055694877,102398.5,-154.0,-998.0,-100.0,1.6875,43.375,-13.1875,14.0625,7.25,8.625,136.8125,-13.6875,91.125,-0.09844970703125,0.707763671875,-0.65057373046875,0.25738525390625,78.0,-46.0,-81.0,-232.0,-952.0,-18.0,34,84.64151972728759,-139.26539267431167,
323,17.925792455673218,0.04400467872619629,22.724856286808727,18.018729202556166,102398.5,-176.0,-916.0,-25.0,2.0625,44.375,-14.375,-0.6875,10.5,2.9375,137.0625,-13.875,91.0,-0.0933837890625,0.7071533203125,-0.65234375,0.25634765625,68.0,57.0,-33.0,-236.0,-951.0,-18.0,29,73.51321578183007,-161.99013571473907,
324,17.974797248840332,0.04900479316711426,20.406167139402843,18.02523808834079,102398.5,-216.0,-893.0,-3.0,2.375,43.6875,-14.375,-5.125,9.5,0.9375,137.5,-13.875,91.375,-0.0908203125,0.70965576171875,-0.6512451171875,0.25299072265625,19.0,57.0,19.0,-236.0,-951.0,-23.0,15,61.81057262546406,-177.35332701611,
325,18.068806648254395,0.04500460624694824,22.219947765187033,17.986799367926043,102397.0,-179.0,-914.0,14.0,2.75,43.25,-14.375,26.4375,5.375,-2.0625,138.75,-13.75,90.4375,-0.08428955078125,0.70477294921875,-0.65936279296875,0.24786376953125,53.0,38.0,21.0,-233.0,-952.0,-7.0,6,50.64845810037126,-191.48698195220751,
326,18.162816047668457,0.0480046272277832,20.831325181528314,17.94875855948826,102397.0,-238.0,-850.0,94.0,2.0625,43.25,-15.0625,26.6875,3.125,-5.8125,140.0,-13.125,87.9375,-0.082763671875,0.689697265625,-0.67608642578125,0.24578857421875,-15.0,103.0,60.0,-222.0,-954.0,34.0,10,42.51876648029701,-187.0600355144285,
327,18.206820487976074,0.04400444030761719,22.724979411382254,17.96030230626777,102397.0,-259.0,-874.0,3.0,2.75,42.1875,-16.6875,20.625,11.0,-4.6875,141.0,-12.875,86.9375,-0.07830810546875,0.68402099609375,-0.68377685546875,0.2418212890625,-40.0,79.0,-47.0,-219.0,-954.0,50.0,10,36.01501318423761,-179.2075603614747,
328,18.25682544708252,0.05000495910644531,19.998016554144257,17.965883551371473,102397.0,-190.0,-976.0,3.0,2.75,42.5625,-17.0625,18.5625,12.0625,-8.125,142.0,-12.6875,86.125,-0.07421875,0.6795654296875,-0.690185546875,0.23736572265625,25.0,-21.0,-60.0,-215.0,-954.0,64.0,1,29.012010547390087,-171.3752808212583,
329,19.501949787139893,0.044004201889038086,22.72510253728998,16.87010804514282,102397.5,-105.0,-983.0,154.0,-1.5625,38.875,-22.0,-3.75,-1.625,-4.0625,149.625,-6.375,81.5,-0.09918212890625,0.64581298828125,-0.7305908203125,0.1982421875,3.0,-19.0,11.0,-108.0,-963.0,143.0,43,31.80960843791207,-124.385084872963,
330,19.54695439338684,0.04500460624694824,22.219947765187033,16.882425433582952,102397.5,-127.0,-960.0,159.0,-2.0,39.1875,-22.0,-2.0,-1.3125,-1.4375,149.75,-6.1875,81.625,-0.10064697265625,0.64642333984375,-0.7301025390625,0.197265625,-22.0,3.0,18.0,-105.0,-964.0,141.0,123,50.04768675032966,-18.458238410508542,
331,19.59195899963379,0.04500460624694824,22.219947765187033,16.894686233581186,102397.5,-98.0,-951.0,176.0,-3.0625,38.875,-21.5625,0.4375,-0.625,0.625,149.625,-6.1875,81.625,-0.10052490234375,0.64617919921875,-0.730224609375,0.19781494140625,6.0,7.0,29.0,-106.0,-964.0,141.0,142,68.43814940026374,66.96043316342484,
332,19.640963792800903,0.04900479316711426,20.406167139402843,16.90344748365605,102397.5,-120.0,-957.0,144.0,-1.5625,38.875,-21.5625,1.0625,-0.4375,-1.0,149.875,-6.1875,81.5,-0.099609375,0.645751953125,-0.73101806640625,0.1966552734375,-15.0,11.0,2.0,-106.0,-964.0,143.0,306,115.950519520211,247.47741970210257,
333,19.686968564987183,0.0460047721862793,21.736875382207526,16.91474230279581,102397.5,-101.0,-977.0,145.0,-2.0,38.875,-20.375,-1.375,-2.4375,-2.25,149.875,-6.125,81.5,-0.10040283203125,0.645751953125,-0.73095703125,0.1966552734375,3.0,-13.0,2.0,-105.0,-964.0,143.0,236,139.9604156161688,302.3619596371992,
334,19.733973264694214,0.04700469970703125,21.274468430449602,16.92512681151519,102397.5,-125.0,-991.0,173.0,-2.0,39.5625,-21.1875,-2.8125,-1.4375,-5.375,150.0,-5.875,81.625,-0.10260009765625,0.64599609375,-0.73065185546875,0.1956787109375,-24.0,-26.0,32.0,-100.0,-965.0,141.0,250,161.96833249293505,335.53091427270385,
335,19.780977964401245,0.04700469970703125,21.274468430449602,16.935461967698533,102397.5,-138.0,-969.0,167.0,-2.75,39.1875,-21.5625,-0.4375,0.5625,-1.5625,150.0625,-5.8125,81.625,-0.10302734375,0.64581298828125,-0.7308349609375,0.19525146484375,-38.0,-4.0,25.0,-99.0,-965.0,141.0,259,181.37466599434805,350.9966173034806,
336,19.828982830047607,0.048004865646362305,20.83122172170432,16.944893385597496,102397.5,-112.0,-957.0,127.0,-3.5,40.0,-21.1875,2.1875,-0.375,1.625,150.0,-5.875,81.5625,-0.1026611328125,0.64544677734375,-0.73114013671875,0.19561767578125,-12.0,7.0,-15.0,-100.0,-964.0,142.0,146,174.29973279547846,251.32139341640465,
337,19.87698721885681,0.0480043888092041,20.831428642379993,16.95427965462977,102394.25,-89.0,-949.0,138.0,-2.75,39.1875,-21.1875,4.0625,-2.3125,0.0625,149.875,-5.875,81.375,-0.1026611328125,0.64422607421875,-0.73193359375,0.19671630859375,11.0,15.0,-7.0,-101.0,-964.0,145.0,175,174.4397862363828,201.6406173851874,
338,19.924992084503174,0.048004865646362305,20.83122172170432,16.963620289861108,102394.25,-101.0,-949.0,102.0,-2.75,38.5,-20.375,2.625,-1.6875,0.375,149.8125,-5.875,81.25,-0.10296630859375,0.64324951171875,-0.73260498046875,0.197265625,0.0,14.0,-45.0,-100.0,-964.0,148.0,226,184.75182898910623,204.27498370528517,
339,19.969996690750122,0.04500460624694824,22.219947765187033,16.975466007814664,102394.25,-88.0,-937.0,122.0,-3.0625,39.5625,-22.375,-0.9375,-3.3125,-0.6875,149.6875,-5.875,81.3125,-0.1038818359375,0.6435546875,-0.73199462890625,0.19793701171875,12.0,26.0,-24.0,-100.0,-964.0,147.0,207,189.201463191285,183.19411487354853,
340,20.01500129699707,0.04500460624694824,22.219947765187033,16.987258454537873,102394.25,-100.0,-978.0,168.0,-2.375,39.5625,-21.5625,-0.625,-3.5625,-5.25,149.6875,-5.6875,81.3125,-0.1058349609375,0.6434326171875,-0.73187255859375,0.1978759765625,-2.0,-13.0,22.0,-97.0,-964.0,146.0,231,197.56117055302803,183.70574408087475,
341,20.059005737304688,0.04400444030761719,22.724979411382254,16.999845578877625,102394.25,-133.0,-962.0,178.0,-3.5,40.375,-20.75,-0.25,-2.5625,-1.125,149.75,-5.5625,81.3125,-0.1075439453125,0.64306640625,-0.73199462890625,0.19775390625,-38.0,2.0,32.0,-95.0,-964.0,146.0,207,199.44893644242245,155.54448345869935,
342,20.104010105133057,0.04500436782836914,22.220065479280787,17.01153144131572,102394.25,-81.0,-971.0,175.0,-2.375,40.0,-20.75,-2.0625,-0.375,1.1875,149.5625,-5.625,81.375,-0.1072998046875,0.64349365234375,-0.7314453125,0.1986083984375,14.0,-6.0,29.0,-96.0,-964.0,145.0,231,205.75914915393798,152.4782546945725,
343,20.149014711380005,0.04500460624694824,22.219947765187033,17.02316489978422,102394.25,-105.0,-972.0,184.0,-2.375,40.0,-20.75,-0.6875,-1.4375,-3.625,149.625,-5.5625,81.375,-0.108154296875,0.6434326171875,-0.7314453125,0.19830322265625,-10.0,-7.0,38.0,-95.0,-965.0,145.0,189,202.4073193231504,107.08710700407887,
344,20.196019411087036,0.04700469970703125,21.274468430449602,17.03305948553178,102394.25,-96.0,-978.0,163.0,-3.0625,38.875,-20.75,0.75,-0.25,1.3125,149.625,-5.5,81.25,-0.10833740234375,0.6427001953125,-0.73199462890625,0.19854736328125,-2.0,-13.0,15.0,-94.0,-964.0,147.0,179,197.72585545852036,65.7505545639906,
345,20.242023944854736,0.046004533767700195,21.736988033603343,17.04375021686972,102394.25,-84.0,-938.0,148.0,-3.0625,38.875,-21.1875,-0.375,1.0,2.375,149.5,-5.625,81.25,-0.10736083984375,0.64276123046875,-0.73187255859375,0.1990966796875,12.0,25.0,0.0,-96.0,-964.0,147.0,123,182.7806843668163,-12.372157384912647,
346,20.29202890396118,0.05000495910644531,19.998016554144257,17.05103031528098,102393.5,-111.0,-960.0,131.0,-2.375,39.1875,-20.75,-0.125,-1.25,-1.75,149.5625,-5.625,81.25,-0.10748291015625,0.64276123046875,-0.73193359375,0.19903564453125,-15.0,4.0,-16.0,-96.0,-964.0,147.0,104,167.02454749345307,-72.91602311250625,
347,20.339033603668213,0.04700469970703125,21.274468430449602,17.060790928503966,102393.5,-95.0,-980.0,156.0,-3.0625,39.5625,-20.75,0.1875,-1.0,-1.0625,149.5,-5.5625,81.25,-0.1082763671875,0.642578125,-0.73187255859375,0.19921875,0.0,-16.0,9.0,-95.0,-964.0,147.0,81,149.81963799476245,-131.53787928573226,
348,20.388038635253906,0.04900503158569336,20.4060678596102,17.068831692238263,102393.5,-113.0,-965.0,157.0,-2.375,39.5625,-22.0,0.3125,-1.25,0.5625,149.5,-5.5,81.25,-0.10888671875,0.64239501953125,-0.73187255859375,0.199462890625,-18.0,0.0,9.0,-94.0,-964.0,147.0,95,138.85571039580998,-149.97643354700125,
349,20.435043334960938,0.04700469970703125,21.274468430449602,17.078505500544715,102393.5,-103.0,-973.0,148.0,-2.75,40.0,-20.0,0.4375,-1.0,-0.125,149.4375,-5.5625,81.25,-0.1090087890625,0.642333984375,-0.7318115234375,0.1998291015625,-7.0,-8.0,0.0,-95.0,-964.0,148.0,76,126.28456831664799,-173.47001989716665,
350,20.480047702789307,0.04500436782836914,22.220065479280787,17.08980394378336,102393.5,-116.0,-968.0,152.0,-2.375,38.0625,-22.75,0.0625,-1.5625,1.4375,149.3125,-5.5625,81.25,-0.1092529296875,0.64227294921875,-0.731689453125,0.200439453125,-21.0,-3.0,4.0,-95.0,-964.0,148.0,71,115.2276546533184,-187.91308503732094,
351,20.526052236557007,0.046004533767700195,21.736988033603343,17.100219562672024,102393.5,-94.0,-952.0,161.0,-3.0625,38.0625,-20.0,0.25,-1.0625,2.0,149.1875,-5.6875,81.1875,-0.10888671875,0.6422119140625,-0.7315673828125,0.20135498046875,4.0,7.0,-6.0,-97.0,-964.0,148.0,71,106.38212372265473,-188.78550802799765,
352,20.570056676864624,0.04400444030761719,22.724979411382254,17.112252315565975,102393.5,-96.0,-965.0,152.0,-2.375,39.5625,-20.375,1.1875,-2.3125,0.3125,149.125,-5.6875,81.1875,-0.10906982421875,0.6419677734375,-0.7315673828125,0.20184326171875,0.0,0.0,3.0,-97.0,-964.0,149.0,62,97.50569897812379,-191.37172033562803,
353,20.61206078529358,0.04200410842895508,23.807194995969986,17.125895546158134,102393.5,-91.0,-942.0,180.0,-2.75,39.1875,-21.1875,1.0,-1.5,0.3125,149.0,-5.6875,81.125,-0.1097412109375,0.6414794921875,-0.73175048828125,0.2025146484375,5.0,21.0,30.0,-97.0,-964.0,150.0,67,91.40455918249904,-182.14758123092457,
354,20.66006565093994,0.048004865646362305,20.83122172170432,17.13450508730085,102392.75,-86.0,-936.0,164.0,-4.25,39.1875,-20.375,0.75,-0.875,-1.4375,149.0625,-5.625,81.0625,-0.10992431640625,0.64105224609375,-0.73211669921875,0.2025146484375,15.0,11.0,10.0,-96.0,-964.0,150.0,62,85.52364734599924,-170.21938066312424,
355,20.707070350646973,0.04700469970703125,21.274468430449602,17.14390273411653,102392.75,-105.0,-973.0,179.0,-4.25,39.1875,-20.375,1.1875,-1.125,-3.5625,149.125,-5.5625,81.0625,-0.110595703125,0.6407470703125,-0.73236083984375,0.20208740234375,-10.0,-9.0,28.0,-95.0,-964.0,151.0,53,79.0189178767994,-163.85243687872082,
356,20.75207495689392,0.04500460624694824,22.219947765187033,17.154911050556677,102392.75,-105.0,-971.0,166.0,-3.5,38.5,-21.5625,2.375,-0.375,-1.5,149.1875,-5.4375,80.9375,-0.11126708984375,0.639892578125,-0.733154296875,0.20166015625,-12.0,-7.0,12.0,-93.0,-964.0,153.0,10,65.21513430143952,-192.42581950426535,
357,20.799079656600952,0.04700469970703125,21.274468430449602,17.164221008533893,102392.75,-111.0,-955.0,166.0,-3.0625,38.875,-20.75,2.9375,0.4375,-0.0625,149.25,-5.4375,80.8125,-0.11083984375,0.6390380859375,-0.73394775390625,0.2017822265625,-18.0,8.0,10.0,-93.0,-963.0,155.0,34,58.97210744115162,-180.50407117334106,
358,20.845084190368652,0.046004533767700195,21.736988033603343,17.17431298096708,102392.75,-123.0,-950.0,142.0,-2.0,39.1875,-21.5625,2.25,1.5,0.625,149.25,-5.5,80.6875,-0.10980224609375,0.638427734375,-0.73455810546875,0.201904296875,-22.0,8.0,-11.0,-94.0,-963.0,157.0,48,56.7776859529213,-153.94327966474174,
359,20.89008855819702,0.04500436782836914,22.220065479280787,17.18518325089305,102392.75,-107.0,-949.0,157.0,-2.375,38.875,-21.5625,4.8125,0.375,-0.5,149.25,-5.5625,80.5625,-0.10894775390625,0.63763427734375,-0.7353515625,0.20220947265625,-7.0,6.0,-4.0,-95.0,-962.0,160.0,53,56.022148762337046,-126.51224090115619,
360,20.9360933303833,0.0460047721862793,21.736875382207526,17.195185095853272,102392.75,-107.0,-931.0,162.0,-1.5625,39.1875,-21.5625,7.5,-1.125,-0.6875,149.25,-5.5625,80.25,-0.108642578125,0.63580322265625,-0.73681640625,0.2025146484375,-16.0,25.0,9.0,-95.0,-962.0,164.0,71,59.017719009869644,-88.18692528707203,
361,20.982097864151,0.046004533767700195,21.736988033603343,17.20514327677344,102392.75,-82.0,-920.0,174.0,-3.0625,38.5,-22.375,10.875,0.4375,-1.875,149.3125,-5.5,79.75,-0.10784912109375,0.632568359375,-0.73974609375,0.20257568359375,4.0,38.0,2.0,-94.0,-960.0,173.0,76,62.414175207895724,-55.783794683027466,
362,21.031102895736694,0.04900503158569336,20.4060678596102,17.21260182096216,102394.5,-126.0,-957.0,168.0,-2.75,39.1875,-22.0,14.875,-2.125,-4.6875,149.5,-5.375,79.0625,-0.1080322265625,0.6278076171875,-0.74371337890625,0.20263671875,-29.0,10.0,-7.0,-91.0,-958.0,184.0,156,81.13134016631659,31.761711909788907,
363,21.078107595443726,0.04700469970703125,21.274468430449602,17.221659883663683,102394.5,-106.0,-948.0,187.0,-2.75,38.0625,-22.75,13.5,0.8125,-0.75,149.5625,-5.3125,78.5,-0.1072998046875,0.62432861328125,-0.7467041015625,0.2030029296875,-15.0,8.0,-6.0,-91.0,-956.0,193.0,348,134.5050721330533,252.50892467615486,
364,21.125112295150757,0.04700469970703125,21.274468430449602,17.230677636850043,102394.5,-58.0,-1023.0,196.0,-3.5,37.6875,-22.75,5.0625,1.75,1.3125,149.5625,-5.375,78.1875,-0.105712890625,0.62225341796875,-0.74853515625,0.2032470703125,34.0,-67.0,2.0,-92.0,-955.0,199.0,156,138.80405770644262,220.2988663137298,
365,21.175117254257202,0.05000495910644531,19.998016554144257,17.23721269721034,102394.5,-127.0,-1007.0,237.0,-3.5,37.6875,-22.75,2.5,1.25,-3.125,149.75,-5.3125,78.0625,-0.10565185546875,0.6214599609375,-0.74951171875,0.2022705078125,-43.0,-29.0,24.0,-91.0,-955.0,201.0,151,141.24324616515412,185.99487928618188,
366,21.22012186050415,0.04500460624694824,22.219947765187033,17.247780309933834,102394.5,-34.0,-926.0,205.0,-4.25,37.375,-23.1875,0.125,9.1875,6.5,149.75,-5.5,78.0625,-0.10211181640625,0.62200927734375,-0.7496337890625,0.201904296875,2.0,-115.0,-28.0,-96.0,-954.0,201.0,217,156.3945969321233,216.1283479517619,
367,21.268126487731934,0.0480046272277832,20.831325181528314,17.255868786171465,102394.5,-88.0,-923.0,194.0,-2.75,37.375,-23.1875,5.5625,-4.0,-0.5,149.8125,-5.6875,78.0,-0.1007080078125,0.6217041015625,-0.7501220703125,0.2017822265625,44.0,21.0,14.0,-97.0,-954.0,202.0,236,172.31567754569863,239.2341198619523,
368,21.316131353378296,0.048004865646362305,20.83122172170432,17.263920638285867,102394.5,-69.0,-970.0,225.0,-2.375,37.0,-24.0,7.125,-0.4375,-6.25,149.9375,-5.5,77.5625,-0.10205078125,0.619140625,-0.75201416015625,0.20166015625,38.0,-10.0,16.0,-95.0,-953.0,208.0,301,198.05254203655892,298.61336201567576,
369,21.362135887145996,0.046004533767700195,21.736988033603343,17.27355363477649,102394.5,-105.0,-970.0,242.0,-3.0625,37.0,-23.5625,12.1875,-3.9375,-5.625,150.125,-5.1875,77.125,-0.10369873046875,0.615478515625,-0.7550048828125,0.2010498046875,-16.0,-18.0,26.0,-89.0,-952.0,216.0,362,230.84203362924714,381.4396468881809,
370,21.41214108467102,0.050005197525024414,19.9979212060819,17.27991603160524,102399.0,-57.0,-933.0,242.0,-3.875,36.5625,-23.5625,17.375,-2.125,6.4375,149.9375,-5.25,76.375,-0.10333251953125,0.61029052734375,-0.758544921875,0.20367431640625,32.0,16.0,12.0,-90.0,-949.0,229.0,372,259.0736269033977,418.0663530742678,
371,21.460145711898804,0.0480046272277832,20.831325181528314,17.287860249443465,102399.0,-50.0,-879.0,186.0,-4.25,36.5625,-24.375,13.75,-5.125,1.25,149.625,-5.4375,75.5625,-0.10186767578125,0.6048583984375,-0.76226806640625,0.20672607421875,42.0,65.0,-56.0,-92.0,-945.0,242.0,451,297.4589015227182,494.37631001488023,
372,21.508150577545166,0.048004865646362305,20.83122172170432,17.295768813724674,102399.0,-76.0,-933.0,233.0,-3.875,36.1875,-24.375,-3.125,-6.75,-12.75,149.75,-5.0,75.375,-0.1053466796875,0.602783203125,-0.7635498046875,0.2061767578125,9.0,11.0,-12.0,-85.0,-945.0,246.0,447,327.3671212181746,520.1059991674035,
373,21.555155038833618,0.04700446128845215,21.27457633996277,17.30444523957289,102399.0,-54.0,-957.0,290.0,-2.75,35.875,-24.375,-16.6875,-0.125,-13.3125,150.1875,-4.3125,75.9375,-0.11138916015625,0.6055908203125,-0.76153564453125,0.2022705078125,19.0,-9.0,53.0,-73.0,-948.0,237.0,433,348.4936969745397,505.97658908008214,
