Index,Time,Difference,Hz,AveHz,0x6104 Pressure,0x6104 Acceleration-X,0x6104 Acceleration-Y,0x6104 Acceleration-Z,0x6104 Magnetic-X,0x6104 Magnetic-Y,0x6104 Magnetic-Z,0x6104 Angular-Vel-X,0x6104 Angular-Vel-Y,0x6104 Angular-Vel-Z,0x6104 Heading,0x6104 Roll,0x6104 Pitch,0x6104 Quaternion-X,0x6104 Quaternion-Y,0x6104 Quaternion-Z,0x6104 Quaternion-W,0x6104 Linear-Acceleration-X,0x6104 Linear-Acceleration-Y,0x6104 Linear-Acceleration-Z,0x6104 Gravity-X,0x6104 Gravity-Y,0x6104 Gravity-Z,0x6104 Range,0x6104 Smoothed Range,0x6104 Velocity,
0,0.0009999275207519531,0.0009999275207519531,1000.072484501669,0.0,102057.25,-126.0,-966.0,-69.0,14.375,42.75,-10.6875,-0.5,0.1875,0.125,207.3125,-6.4375,94.125,-0.251953125,-0.687255859375,0.66204833984375,0.160888671875,-16.0,5.0,0.0,-110.0,-971.0,-70.0,1690,1686.0,,
1,0.051999807357788086,0.05099987983703613,19.607889336119566,19.23084047445473,102057.25,-119.0,-969.0,-78.0,13.6875,42.75,-11.375,0.9375,0.125,0.0,207.1875,-6.4375,94.125,-0.25152587890625,-0.68743896484375,0.66217041015625,0.16033935546875,-8.0,2.0,-8.0,-110.0,-971.0,-70.0,1709,1690.6000000000001,18.039258189230534,
2,0.10099983215332031,0.04900002479553223,20.408152938142575,19.80201310596189,102057.25,-114.0,-970.0,-79.0,13.6875,43.5,-11.0625,1.5,-0.3125,0.4375,207.125,-6.4375,94.0625,-0.25115966796875,-0.687255859375,0.66259765625,0.1600341796875,-4.0,1.0,-9.0,-110.0,-971.0,-69.0,1704,1693.2800000000002,25.37017652622911,
3,0.14899992942810059,0.04800009727478027,20.833291113462177,20.13423772423758,102057.25,-99.0,-958.0,-70.0,14.0625,43.5,-11.875,1.6875,0.25,-1.0625,207.0625,-6.4375,93.9375,-0.25030517578125,-0.6868896484375,0.66326904296875,0.15997314453125,10.0,12.0,0.0,-110.0,-972.0,-67.0,1699,1694.4240000000002,25.062798227743457,
4,0.1979999542236328,0.04900002479553223,20.408152938142575,20.202024872602568,102057.25,-105.0,-963.0,-72.0,14.0625,43.1875,-12.1875,0.3125,0.875,0.375,207.0,-6.4375,93.875,-0.249755859375,-0.68682861328125,0.66363525390625,0.15966796875,9.0,6.0,-3.0,-109.0,-972.0,-66.0,1709,1697.3392000000001,31.94900807124906,
5,0.24699997901916504,0.04900002479553223,20.408152938142575,20.242916699244105,102057.25,-112.0,-975.0,-84.0,14.0625,42.375,-11.0625,0.5,0.1875,0.125,207.0,-6.4375,93.9375,-0.25,-0.686767578125,0.66357421875,0.15960693359375,-5.0,-5.0,-11.0,-110.0,-972.0,-67.0,1704,1698.67136,30.99659146061417,
6,0.29199981689453125,0.04499983787536621,22.222302284058216,20.547958090559924,102057.25,-106.0,-964.0,-67.0,14.75,43.5,-11.875,1.75,-0.4375,0.1875,207.0,-6.4375,93.8125,-0.24993896484375,-0.68634033203125,0.6640625,0.1597900390625,1.0,9.0,3.0,-110.0,-972.0,-65.0,1718,1702.537088,41.978348401280854,
7,0.3429999351501465,0.051000118255615234,19.607797671918096,20.40816712380947,102057.25,-111.0,-961.0,-72.0,14.0625,42.375,-11.875,1.0,0.5625,-0.25,207.0,-6.4375,93.75,-0.24969482421875,-0.68609619140625,0.6644287109375,0.15972900390625,-1.0,8.0,-7.0,-110.0,-972.0,-64.0,1727,1707.4296704000003,52.76923187950321,
8,0.39100003242492676,0.04800009727478027,20.833291113462177,20.46035635952543,102057.75,-109.0,-970.0,-69.0,14.0625,42.375,-11.375,1.5625,0.5625,-0.6875,207.0625,-6.4375,93.75,-0.24951171875,-0.68585205078125,0.66461181640625,0.1600341796875,1.0,5.0,0.0,-110.0,-972.0,-64.0,1690,1703.9437363200004,27.69068960540728,
9,0.44099974632263184,0.04999971389770508,20.00011444157281,20.408175004744045,102057.75,-111.0,-953.0,-64.0,14.375,42.375,-12.1875,1.9375,0.3125,-0.25,207.0625,-6.4375,93.6875,-0.2493896484375,-0.68536376953125,0.66510009765625,0.16015625,-3.0,7.0,1.0,-110.0,-972.0,-62.0,1690,1701.1549890560004,10.997498798601237,
10,0.49000000953674316,0.04900026321411133,20.40805363902648,20.408162868107333,102057.75,-100.0,-966.0,-67.0,14.375,43.1875,-11.0625,0.875,0.4375,-1.75,207.125,-6.375,93.5625,-0.2490234375,-0.68505859375,0.66552734375,0.16058349609375,6.0,6.0,-6.0,-109.0,-972.0,-61.0,1704,1701.7239912448003,11.120444476831413,
11,0.5390000343322754,0.04900002479553223,20.408152938142575,20.408161965382863,102057.75,-112.0,-965.0,-59.0,13.25,41.6875,-12.1875,2.5,-0.1875,0.5,207.125,-6.3125,93.5,-0.248779296875,-0.68475341796875,0.66583251953125,0.16094970703125,-3.0,7.0,1.0,-108.0,-972.0,-60.0,1695,1700.3791929958404,3.4073859143210017,
12,0.5869998931884766,0.04799985885620117,20.833394593842822,20.44293387315317,102057.75,-109.0,-963.0,-55.0,14.375,42.375,-11.375,0.3125,-0.375,1.3125,207.125,-6.375,93.4375,-0.2490234375,-0.6842041015625,0.6663818359375,0.1607666015625,0.0,9.0,3.0,-109.0,-972.0,-59.0,1709,1702.1033543966723,9.90993569285763,
13,0.6380000114440918,0.051000118255615234,19.607797671918096,20.37617518309276,102057.75,-112.0,-967.0,-58.0,14.75,43.1875,-12.5625,2.0625,0.0625,-1.9375,207.125,-6.375,93.375,-0.2489013671875,-0.6839599609375,0.66656494140625,0.160888671875,-1.0,4.0,0.0,-109.0,-972.0,-58.0,1685,1698.6826835173379,-5.48641594655637,
14,0.6949999332427979,0.056999921798706055,17.54388371849838,20.143886826977734,102057.75,-108.0,-955.0,-56.0,13.6875,42.0,-11.875,1.375,-0.5,0.125,207.125,-6.375,93.3125,-0.2486572265625,-0.6832275390625,0.6673583984375,0.16119384765625,0.0,15.0,-5.0,-109.0,-972.0,-56.0,1685,1695.9461468138704,-13.991029100652213,
15,0.744999885559082,0.04999995231628418,20.000019073504518,20.134231280778405,102052.75,-101.0,-980.0,-68.0,14.375,42.375,-11.875,0.875,-0.75,-1.4375,207.1875,-6.3125,93.25,-0.24822998046875,-0.6832275390625,0.66741943359375,0.1614990234375,4.0,-2.0,-5.0,-108.0,-973.0,-55.0,1709,1698.5569174510963,-0.7497307723091851,
16,0.7919998168945312,0.04699993133544922,21.276626828723902,20.202024872602568,102052.75,-116.0,-949.0,-60.0,13.25,43.1875,-12.1875,1.8125,-0.625,-0.0625,207.125,-6.3125,93.1875,-0.2479248046875,-0.682861328125,0.66796875,0.161376953125,-8.0,23.0,-5.0,-108.0,-973.0,-54.0,1671,1693.0455339608773,-24.052514584123394,
17,0.8429999351501465,0.051000118255615234,19.607797671918096,20.166075098181512,102052.75,-97.0,-951.0,-49.0,12.5625,42.375,-11.875,0.5625,-0.4375,-0.125,207.1875,-6.3125,93.125,-0.24761962890625,-0.6826171875,0.66827392578125,0.1617431640625,10.0,22.0,4.0,-107.0,-973.0,-53.0,1685,1691.4364271687018,-25.552219749995803,
18,0.8889999389648438,0.046000003814697266,21.739128631995772,20.247470456476403,102052.75,-112.0,-974.0,-65.0,14.75,42.0,-11.875,-0.25,-0.1875,-0.9375,207.125,-6.3125,93.125,-0.24774169921875,-0.6827392578125,0.66815185546875,0.1614990234375,-4.0,0.0,-12.0,-108.0,-973.0,-53.0,1699,1692.9491417349616,-13.86475649211366,
19,0.9369997978210449,0.04799985885620117,20.833394593842822,20.2774856986989,102052.75,-112.0,-958.0,-53.0,13.6875,42.0,-13.375,0.9375,-0.4375,0.6875,207.1875,-6.3125,93.125,-0.24761962890625,-0.6826171875,0.66827392578125,0.16168212890625,-5.0,11.0,6.0,-108.0,-973.0,-53.0,1704,1695.1593133879694,-1.8827295602433765,
20,0.9869999885559082,0.05000019073486328,19.999923706345726,20.263424753694522,102052.75,-106.0,-958.0,-53.0,14.375,43.1875,-11.875,0.0,0.375,-1.125,207.1875,-6.3125,93.0625,-0.24755859375,-0.6824951171875,0.66839599609375,0.1617431640625,1.0,14.0,0.0,-107.0,-973.0,-53.0,1671,1690.3274507103756,-20.833560630477734,
21,1.0380001068115234,0.051000118255615234,19.607797671918096,20.231211791014882,102052.75,-117.0,-967.0,-66.0,14.0625,41.25,-11.375,-1.0,-0.3125,0.9375,207.1875,-6.25,93.125,-0.24749755859375,-0.6827392578125,0.66815185546875,0.1617431640625,-9.0,5.0,-12.0,-107.0,-973.0,-53.0,1681,1688.4619605683006,-23.98247915733518,
22,1.0859999656677246,0.04799985885620117,20.833394593842822,20.25782752808224,102052.75,-105.0,-962.0,-53.0,14.75,43.1875,-11.375,-0.375,-1.0625,-0.1875,207.125,-6.3125,93.125,-0.2474365234375,-0.682861328125,0.66815185546875,0.161376953125,2.0,10.0,0.0,-108.0,-973.0,-53.0,1704,1691.5695684546406,-6.237579058056248,
23,1.13100004196167,0.04500007629394531,22.222184546263723,20.335985098733957,102054.75,-106.0,-957.0,-46.0,13.6875,42.0,-11.375,-1.5,-0.5,-0.25,207.0625,-6.3125,93.1875,-0.24725341796875,-0.68316650390625,0.66796875,0.16107177734375,1.0,15.0,7.0,-108.0,-973.0,-54.0,1671,1687.4556547637126,-23.274093095885725,
24,1.176999807357788,0.045999765396118164,21.739241306747797,20.39082746655404,102054.75,-104.0,-966.0,-45.0,14.75,42.75,-11.375,-0.625,-0.25,0.875,207.0625,-6.3125,93.25,-0.2474365234375,-0.68353271484375,0.6676025390625,0.160888671875,3.0,6.0,9.0,-108.0,-973.0,-55.0,1685,1686.9645238109701,-20.754637335684677,
25,1.2260000705718994,0.04900026321411133,20.40805363902648,20.391515955083186,102054.75,-95.0,-973.0,-59.0,14.0625,43.1875,-11.875,-0.6875,0.125,-0.6875,207.0625,-6.3125,93.25,-0.24749755859375,-0.68359375,0.66748046875,0.1607666015625,13.0,0.0,-3.0,-108.0,-973.0,-56.0,1709,1691.3716190487762,1.384337332541108,
26,1.2719998359680176,0.045999765396118164,21.739241306747797,20.44025420821967,102054.75,-101.0,-970.0,-55.0,13.6875,41.6875,-11.875,-0.1875,0.0625,-1.6875,207.125,-6.25,93.25,-0.24713134765625,-0.6837158203125,0.66741943359375,0.1611328125,6.0,2.0,0.0,-107.0,-973.0,-56.0,1685,1690.0972952390212,-4.433096694606999,
27,1.318000078201294,0.04600024223327637,21.739015958411727,20.485583003035586,102054.75,-92.0,-952.0,-48.0,14.0625,42.375,-10.1875,-0.375,-1.6875,0.5,207.125,-6.25,93.25,-0.246826171875,-0.683837890625,0.66748046875,0.1610107421875,14.0,21.0,7.0,-107.0,-973.0,-56.0,1727,1697.4778361912172,28.542662152614614,
28,1.3659999370574951,0.04799985885620117,20.833394593842822,20.49780475123219,102054.75,-119.0,-972.0,-59.0,13.6875,42.75,-10.6875,-3.25,-2.6875,0.0625,206.9375,-6.25,93.375,-0.246337890625,-0.68463134765625,0.66705322265625,0.1600341796875,-12.0,0.0,-1.0,-107.0,-973.0,-57.0,1709,1699.7822689529737,32.43596113022219,
29,1.4179999828338623,0.05200004577636719,19.230752301654256,20.451340162955233,102054.75,-118.0,-982.0,-55.0,13.6875,43.1875,-11.375,-0.9375,-0.6875,-1.1875,206.9375,-6.1875,93.4375,-0.2457275390625,-0.68536376953125,0.66668701171875,0.15966796875,-12.0,-9.0,3.0,-106.0,-973.0,-58.0,1723,1704.425815162379,43.80854629504937,
30,1.4700000286102295,0.05200004577636719,19.230752301654256,20.408162868107333,102054.75,-103.0,-965.0,-49.0,14.0625,43.5,-11.375,0.5625,-0.6875,0.0,206.875,-6.1875,93.4375,-0.24554443359375,-0.68536376953125,0.666748046875,0.1595458984375,3.0,7.0,9.0,-106.0,-973.0,-58.0,1681,1699.7406521299033,17.026995081958162,
31,1.5199999809265137,0.04999995231628418,20.000019073504518,20.394737098025487,102054.75,-117.0,-971.0,-57.0,13.6875,43.5,-12.5625,0.0625,-1.25,0.8125,206.8125,-6.25,93.4375,-0.24530029296875,-0.68536376953125,0.6668701171875,0.15924072265625,-10.0,1.0,0.0,-106.0,-973.0,-58.0,1671,1693.9925217039229,-9.370947565753541,
32,1.566999912261963,0.04699993133544922,21.276626828723902,20.42118812489787,102054.75,-117.0,-965.0,-58.0,13.6875,43.5,-12.5625,1.0,-1.8125,1.6875,206.6875,-6.3125,93.375,-0.2452392578125,-0.68524169921875,0.66729736328125,0.1583251953125,-9.0,7.0,4.0,-108.0,-972.0,-58.0,1699,1694.9940173631383,-3.235068170260339,
33,1.616999864578247,0.04999995231628418,20.000019073504518,20.408164974464736,102054.75,-123.0,-961.0,-57.0,13.6875,43.875,-11.875,0.5625,-1.125,1.0,206.5,-6.375,93.375,-0.2452392578125,-0.68505859375,0.6676025390625,0.1575927734375,-14.0,11.0,0.0,-109.0,-972.0,-57.0,1657,1687.3952138905108,-32.983297413880436,
34,1.6679999828338623,0.051000118255615234,19.607797671918096,20.3836932553413,102054.75,-117.0,-967.0,-53.0,13.6875,43.875,-11.875,0.3125,-1.3125,0.1875,206.5,-6.375,93.375,-0.24493408203125,-0.68505859375,0.66778564453125,0.1573486328125,-7.0,4.0,4.0,-109.0,-972.0,-57.0,1652,1680.316171112409,-54.14752563187933,
35,1.7139999866485596,0.046000003814697266,21.739128631995772,20.420070170733577,102054.75,-113.0,-967.0,-55.0,14.0625,44.25,-11.375,0.5625,-1.4375,0.25,206.4375,-6.375,93.3125,-0.24456787109375,-0.68511962890625,0.66796875,0.15692138671875,-3.0,4.0,1.0,-109.0,-972.0,-57.0,1713,1686.8529368899272,-14.89730209056421,
36,1.7649998664855957,0.05099987983703613,19.607889336119566,20.396602109484522,102054.75,-117.0,-964.0,-61.0,14.0625,43.1875,-11.375,0.8125,-1.1875,0.5625,206.3125,-6.375,93.3125,-0.2442626953125,-0.6851806640625,0.66815185546875,0.15643310546875,-7.0,7.0,-4.0,-109.0,-972.0,-57.0,1690,1687.4823495119417,-9.449551064607661,
37,1.8129997253417969,0.04799985885620117,20.833394593842822,20.40816635701616,102054.75,-109.0,-964.0,-56.0,14.0625,43.1875,-11.375,0.9375,-0.375,0.375,206.3125,-6.375,93.25,-0.2440185546875,-0.6849365234375,0.66845703125,0.1563720703125,0.0,7.0,0.0,-109.0,-972.0,-56.0,1695,1688.9858796095534,-1.294913690233411,
38,1.8619999885559082,0.04900026321411133,20.40805363902648,20.40816339073732,102055.0,-108.0,-963.0,-61.0,13.25,42.75,-13.0625,0.5625,-0.125,1.0,206.25,-6.4375,93.25,-0.24420166015625,-0.684814453125,0.6685791015625,0.15625,3.0,7.0,-2.0,-110.0,-972.0,-56.0,1695,1690.1887036876428,3.873528708605508,
39,1.9100000858306885,0.04800009727478027,20.833291113462177,20.41884724996664,102055.0,-107.0,-967.0,-59.0,14.75,42.375,-13.0625,1.25,0.375,-0.25,206.25,-6.4375,93.25,-0.2442626953125,-0.68463134765625,0.66876220703125,0.15618896484375,4.0,5.0,0.0,-110.0,-972.0,-55.0,1690,1690.1509629501143,2.9415702125305314,
40,1.9569997787475586,0.04699969291687012,21.276734760134126,20.439450445722184,102055.0,-116.0,-954.0,-56.0,14.375,43.5,-10.6875,0.625,0.875,0.625,206.3125,-6.4375,93.1875,-0.244384765625,-0.684326171875,0.6689453125,0.15643310546875,-2.0,19.0,-1.0,-110.0,-972.0,-54.0,1690,1690.1207703600915,2.2247762240970776,
41,2.003000020980835,0.04600024223327637,21.739015958411727,20.46929584150628,102055.0,-107.0,-967.0,-65.0,14.0625,43.5,-12.1875,0.4375,1.0625,-0.6875,206.3125,-6.4375,93.1875,-0.24456787109375,-0.68426513671875,0.66888427734375,0.15667724609375,-1.0,-1.0,-4.0,-110.0,-972.0,-55.0,1662,1684.4966162880733,-22.67289404555633,
42,2.050999879837036,0.04799985885620117,20.833394593842822,20.477816899402814,102055.0,-121.0,-957.0,-60.0,14.0625,42.75,-11.375,0.5,0.5625,0.875,206.375,-6.4375,93.1875,-0.24493408203125,-0.6842041015625,0.6688232421875,0.15673828125,-11.0,17.0,-1.0,-110.0,-972.0,-55.0,1690,1685.5972930304588,-13.552148657568413,
43,2.0989999771118164,0.04800009727478027,20.833291113462177,20.485945911808525,102055.0,-121.0,-963.0,-61.0,14.0625,41.25,-11.0625,0.4375,0.6875,0.625,206.375,-6.5,93.1875,-0.24517822265625,-0.68408203125,0.6688232421875,0.15673828125,-13.0,10.0,-3.0,-111.0,-972.0,-55.0,1676,1683.6778344243671,-18.839446910244334,
44,2.1470000743865967,0.04800009727478027,20.833291113462177,20.493711446456707,102055.0,-116.0,-967.0,-62.0,14.375,42.375,-11.375,0.625,1.0625,-0.875,206.4375,-6.4375,93.1875,-0.2452392578125,-0.6839599609375,0.6688232421875,0.15716552734375,-5.0,4.0,-7.0,-110.0,-972.0,-54.0,1666,1680.1422675394938,-29.803056360932025,
45,2.194000005722046,0.04699993133544922,21.276626828723902,20.510483082332758,102055.0,-104.0,-962.0,-63.0,14.0625,42.375,-11.875,0.6875,0.875,-0.5625,206.5,-6.4375,93.1875,-0.24530029296875,-0.683837890625,0.6688232421875,0.15765380859375,5.0,10.0,-8.0,-110.0,-972.0,-54.0,1695,1683.1138140315952,-11.197547925416508,
46,2.244999885559082,0.05099987983703613,19.607889336119566,20.489978772780393,102054.75,-116.0,-972.0,-66.0,13.6875,41.6875,-12.5625,-0.5,0.25,-0.5625,206.5,-6.375,93.1875,-0.24517822265625,-0.68389892578125,0.66876220703125,0.1578369140625,-6.0,0.0,-11.0,-109.0,-972.0,-54.0,1662,1678.8910512252764,-25.517931500129233,
47,2.2960000038146973,0.051000118255615234,19.607797671918096,20.470383241250733,102054.75,-114.0,-961.0,-57.0,14.0625,42.375,-10.6875,0.625,0.5,-0.5,206.5625,-6.375,93.1875,-0.24517822265625,-0.683837890625,0.6688232421875,0.15789794921875,-7.0,6.0,-3.0,-109.0,-972.0,-54.0,1695,1682.1128409802213,-7.779904868819774,
48,2.3449997901916504,0.048999786376953125,20.40825223822499,20.469084987029824,102054.75,-121.0,-962.0,-61.0,13.6875,41.6875,-12.1875,-0.1875,0.1875,1.4375,206.5,-6.4375,93.1875,-0.245361328125,-0.68377685546875,0.66888427734375,0.15765380859375,-10.0,10.0,-7.0,-110.0,-972.0,-54.0,1671,1679.8902727841771,-15.295670367361252,
49,2.3929998874664307,0.04800009727478027,20.833291113462177,20.476390432211158,102054.75,-120.0,-964.0,-60.0,13.6875,43.5,-12.1875,0.0625,0.3125,-0.9375,206.5,-6.4375,93.1875,-0.2452392578125,-0.68377685546875,0.6688232421875,0.1578369140625,-10.0,7.0,-6.0,-110.0,-972.0,-54.0,1685,1680.9122182273418,-7.978438909983873,
50,2.444000005722046,0.051000118255615234,19.607797671918096,20.45826509121803,102054.75,-100.0,-965.0,-56.0,14.375,42.375,-12.1875,1.125,0.0625,-1.0625,206.5625,-6.375,93.125,-0.244873046875,-0.6837158203125,0.6689453125,0.158203125,8.0,7.0,-2.0,-109.0,-973.0,-53.0,1690,1682.7297745818735,0.744904323406181,
51,2.492999792098999,0.048999786376953125,20.40825223822499,20.457282091090825,102054.75,-111.0,-969.0,-64.0,14.0625,43.1875,-11.875,-0.375,-0.375,0.125,206.5625,-6.375,93.125,-0.244873046875,-0.6837158203125,0.6689453125,0.158203125,-2.0,3.0,-10.0,-109.0,-973.0,-53.0,1709,1687.983819665499,22.04109892625173,
52,2.5420000553131104,0.04900026321411133,20.40805363902648,20.456333150470726,102054.75,-116.0,-959.0,-55.0,14.0625,43.1875,-11.375,0.375,-0.8125,0.125,206.5625,-6.375,93.125,-0.24468994140625,-0.6837158203125,0.66912841796875,0.15802001953125,-7.0,13.0,-1.0,-109.0,-973.0,-53.0,1681,1686.5870557323992,11.931832487450166,
53,2.5929999351501465,0.05099987983703613,19.607889336119566,20.4396457097987,102054.75,-114.0,-967.0,-63.0,14.0625,42.75,-11.0625,0.0,-0.125,-0.5625,206.5625,-6.375,93.125,-0.24462890625,-0.6837158203125,0.66912841796875,0.157958984375,-5.0,5.0,-10.0,-109.0,-973.0,-53.0,1657,1680.6696445859195,-13.660122593338771,
54,2.6409997940063477,0.04799985885620117,20.833394593842822,20.446802049190243,102053.5,-109.0,-978.0,-62.0,14.0625,41.25,-12.5625,-0.0625,-0.4375,0.6875,206.5625,-6.3125,93.125,-0.24444580078125,-0.68377685546875,0.66912841796875,0.1580810546875,-1.0,-5.0,-9.0,-108.0,-973.0,-53.0,1662,1676.9357156687358,-26.486180978080572,
55,2.690999984741211,0.05000019073486328,19.999923706345726,20.438498815260775,102053.5,-111.0,-961.0,-57.0,13.6875,43.1875,-11.875,0.8125,0.375,-0.5625,206.5,-6.375,93.0625,-0.2445068359375,-0.68353271484375,0.66937255859375,0.15789794921875,-4.0,18.0,6.0,-109.0,-973.0,-52.0,1699,1681.3485725349888,-3.5375846520479897,
56,2.73799991607666,0.04699993133544922,21.276626828723902,20.452885944658327,102053.5,-101.0,-973.0,-61.0,13.6875,42.75,-12.1875,0.3125,0.3125,-0.1875,206.5625,-6.3125,93.0625,-0.244384765625,-0.68353271484375,0.66937255859375,0.15814208984375,7.0,0.0,-8.0,-108.0,-973.0,-52.0,1695,1684.0788580279911,8.788185392459647,
57,2.7849998474121094,0.04699993133544922,21.276626828723902,20.466787476834444,102053.5,-109.0,-953.0,-48.0,14.375,42.75,-10.6875,1.625,0.0625,1.625,206.5,-6.375,93.0625,-0.24462890625,-0.6832275390625,0.669677734375,0.15789794921875,0.0,19.0,3.0,-109.0,-973.0,-52.0,1751,1697.463086422393,63.98479490158731,
58,2.8350000381469727,0.05000019073486328,19.999923706345726,20.45855351660251,102053.5,-110.0,-955.0,-50.0,14.0625,41.6875,-11.375,-1.0,0.0,1.0,206.4375,-6.4375,93.0,-0.24493408203125,-0.68292236328125,0.669921875,0.15765380859375,0.0,17.0,1.0,-110.0,-973.0,-51.0,1756,1709.1704691379146,98.01718814355434,
59,2.883999824523926,0.048999786376953125,20.40825223822499,20.457698886905924,102053.5,-121.0,-985.0,-61.0,13.6875,43.1875,-11.375,0.125,0.6875,-1.1875,206.5,-6.4375,93.0625,-0.244873046875,-0.68328857421875,0.6695556640625,0.15777587890625,-11.0,-12.0,-9.0,-110.0,-973.0,-52.0,1737,1714.7363753103318,101.13183393504049,
60,2.930999994277954,0.04700016975402832,21.27651889840869,20.470829108541462,102053.5,-109.0,-951.0,-46.0,14.0625,42.375,-13.0625,1.3125,0.0625,-0.0625,206.5,-6.375,93.0,-0.24468994140625,-0.682861328125,0.66998291015625,0.15802001953125,0.0,21.0,4.0,-109.0,-973.0,-51.0,1713,1714.3891002482655,79.42770626383258,
61,2.9779999256134033,0.04699993133544922,21.276626828723902,20.483546515682107,102053.5,-103.0,-975.0,-56.0,14.375,42.75,-12.1875,-0.875,-0.5625,-0.1875,206.5,-6.375,93.0,-0.24468994140625,-0.6829833984375,0.66986083984375,0.15802001953125,6.0,-2.0,-4.0,-109.0,-973.0,-51.0,1774,1726.3112801986124,114.27491976875083,
62,3.0249998569488525,0.04699993133544922,21.276626828723902,20.495868737837203,102051.5,-122.0,-966.0,-53.0,14.0625,43.1875,-11.0625,-0.375,0.125,1.0625,206.5,-6.4375,93.0,-0.24481201171875,-0.68292236328125,0.669921875,0.15789794921875,-12.0,6.0,-1.0,-110.0,-973.0,-51.0,1690,1719.04902415889,60.51667347663676,
63,3.075000047683716,0.05000019073486328,19.999923706345726,20.487804560346454,102051.5,-116.0,-956.0,-43.0,13.6875,42.375,-9.5,1.0,0.25,0.5625,206.4375,-6.4375,93.0,-0.2449951171875,-0.6827392578125,0.6700439453125,0.15771484375,-5.0,16.0,7.0,-110.0,-973.0,-51.0,1746,1724.4392193271121,69.97403720666063,
64,3.124999761581421,0.04999971389770508,20.00011444157281,20.48000156250012,102051.5,-114.0,-970.0,-52.0,14.0625,42.375,-11.875,-0.9375,0.3125,-1.25,206.5,-6.4375,93.0,-0.2447509765625,-0.682861328125,0.66998291015625,0.157958984375,-4.0,2.0,-1.0,-110.0,-973.0,-51.0,1727,1724.9513754616898,58.02786602603005,
65,3.1740000247955322,0.04900026321411133,20.40805363902648,20.478890829305293,102051.5,-111.0,-966.0,-52.0,14.75,43.1875,-11.375,-0.125,-0.25,0.0,206.5,-6.375,93.0,-0.2447509765625,-0.68292236328125,0.669921875,0.15802001953125,-1.0,6.0,0.0,-109.0,-973.0,-51.0,1662,1712.361100369352,-4.966309062081876,
66,3.2220001220703125,0.04800009727478027,20.833291113462177,20.48417054608656,102051.5,-113.0,-953.0,-45.0,14.75,45.0,-12.1875,-0.0625,-0.5,-0.875,206.5,-6.375,93.0,-0.2445068359375,-0.68292236328125,0.66998291015625,0.15802001953125,-3.0,19.0,5.0,-109.0,-973.0,-51.0,1695,1708.8888802954816,-18.440601571455353,
67,3.2679998874664307,0.045999765396118164,21.739241306747797,20.501836691292798,102051.5,-106.0,-959.0,-48.0,14.375,42.375,-11.875,-0.3125,-0.8125,15.875,206.5,-6.375,93.0,-0.24444580078125,-0.68316650390625,0.6697998046875,0.157958984375,0.0,12.0,-3.0,-109.0,-973.0,-51.0,1657,1698.5111042363856,-59.87347685238013,
68,3.316999912261963,0.04900002479553223,20.408152938142575,20.50045275811561,102051.5,-113.0,-956.0,-48.0,14.75,43.5,-12.1875,-1.5625,-0.375,0.3125,206.5,-6.375,93.0625,-0.244384765625,-0.6832275390625,0.66973876953125,0.15789794921875,-3.0,16.0,3.0,-109.0,-973.0,-52.0,1652,1689.2088833891087,-85.86701062502509,
69,3.364999771118164,0.04799985885620117,20.833394593842822,20.505201989084185,102051.5,-110.0,-975.0,-40.0,14.75,43.5,-12.1875,-1.125,0.0625,0.4375,206.5,-6.375,93.125,-0.2445068359375,-0.68365478515625,0.66925048828125,0.15771484375,-1.0,-2.0,12.0,-109.0,-973.0,-53.0,1634,1678.167106711287,-114.70114660924992,
70,3.4140000343322754,0.04900026321411133,20.40805363902648,20.503807643836446,102055.75,-123.0,-997.0,-58.0,14.75,42.75,-12.1875,-1.625,-0.875,1.0625,206.4375,-6.4375,93.1875,-0.244873046875,-0.68402099609375,0.66888427734375,0.15716552734375,-12.0,-24.0,-4.0,-110.0,-972.0,-54.0,1638,1670.1336853690295,-124.55021601893816,
71,3.4620001316070557,0.04800009727478027,20.833291113462177,20.50837588126893,102055.75,-104.0,-947.0,-29.0,14.0625,42.375,-12.1875,2.0625,-3.3125,-0.125,206.3125,-6.4375,93.125,-0.244140625,-0.68377685546875,0.66961669921875,0.15655517578125,7.0,28.0,23.0,-110.0,-972.0,-53.0,1685,1673.1069482952237,-87.25160239549716,
72,3.510999917984009,0.048999786376953125,20.40825223822499,20.50697854796359,102055.75,-110.0,-930.0,-39.0,14.375,42.75,-12.1875,-1.5,-2.0,1.125,206.125,-6.5,93.125,-0.24371337890625,-0.68389892578125,0.66986083984375,0.15545654296875,6.0,38.0,14.0,-111.0,-972.0,-53.0,1690,1676.4855586361791,-56.010975505818905,
73,3.559000015258789,0.04800009727478027,20.833291113462177,20.51137951307142,102055.75,-98.0,-972.0,-62.0,14.75,42.375,-10.6875,-3.8125,-0.4375,0.75,206.0625,-6.5,93.25,-0.24383544921875,-0.684814453125,0.66900634765625,0.1549072265625,14.0,-7.0,0.0,-111.0,-972.0,-55.0,1690,1679.1884469089434,-33.54676875792275,
74,3.607999801635742,0.048999786376953125,20.40825223822499,20.50997895466928,102055.75,-100.0,-975.0,-44.0,14.75,42.0,-11.0625,-2.1875,-0.4375,-1.0,206.0,-6.5,93.375,-0.2440185546875,-0.68560791015625,0.66839599609375,0.15447998046875,11.0,-3.0,13.0,-112.0,-972.0,-57.0,1666,1676.550757527155,-37.60354105226371,
75,3.6549999713897705,0.04700016975402832,21.27651889840869,20.519836001936312,102055.75,-108.0,-970.0,-54.0,14.0625,43.1875,-10.1875,-1.5625,-3.3125,1.3125,205.9375,-6.5625,93.4375,-0.24371337890625,-0.68609619140625,0.66796875,0.15386962890625,6.0,6.0,15.0,-112.0,-972.0,-59.0,1681,1677.440606021724,-26.29625717952676,
76,3.7009997367858887,0.045999765396118164,21.739241306747797,20.534992003539497,102055.75,-133.0,-971.0,-52.0,14.0625,42.75,-11.875,-3.5,-5.5,0.1875,205.5625,-6.625,93.5625,-0.24273681640625,-0.6871337890625,0.66778564453125,0.15179443359375,-29.0,-8.0,5.0,-113.0,-972.0,-60.0,1648,1671.5524848173795,-46.637663284546306,
77,3.746999979019165,0.04600024223327637,21.739015958411727,20.549773266920578,102055.75,-109.0,-955.0,-48.0,13.6875,42.375,-10.1875,0.6875,-4.0625,-1.1875,205.4375,-6.5625,93.5625,-0.241455078125,-0.68768310546875,0.66790771484375,0.1507568359375,2.0,16.0,12.0,-112.0,-972.0,-61.0,1648,1666.841987853904,-57.790444359846404,
78,3.796999931335449,0.04999995231628418,20.000019073504518,20.542533950630464,102052.0,-97.0,-953.0,-43.0,14.0625,43.1875,-11.0625,-2.1875,-0.6875,2.0625,205.3125,-6.625,93.5625,-0.2410888671875,-0.68780517578125,0.66802978515625,0.15008544921875,15.0,18.0,17.0,-113.0,-972.0,-60.0,1666,1666.6735902831233,-46.90594641338589,
79,3.8449997901916504,0.04799985885620117,20.833394593842822,20.546164970287897,102052.0,-90.0,-973.0,-53.0,13.25,43.1875,-12.1875,-2.6875,-0.625,0.5625,205.25,-6.625,93.625,-0.2410888671875,-0.688232421875,0.66766357421875,0.1497802734375,24.0,3.0,3.0,-113.0,-972.0,-62.0,1671,1667.5388722264988,-33.91940509845484,
80,3.8919999599456787,0.04700016975402832,21.27651889840869,20.55498479530215,102052.0,-102.0,-953.0,-44.0,14.75,42.75,-11.875,-1.5625,-1.1875,0.875,205.25,-6.5625,93.6875,-0.24066162109375,-0.688720703125,0.6673583984375,0.1494140625,13.0,21.0,15.0,-113.0,-972.0,-63.0,1657,1665.4310977811992,-36.104744642563766,
81,3.940999746322632,0.048999786376953125,20.40825223822499,20.553160419657864,102052.0,-97.0,-973.0,-43.0,14.0625,42.0,-11.875,-3.8125,0.125,0.1875,205.1875,-6.5625,93.8125,-0.24053955078125,-0.6893310546875,0.66680908203125,0.14935302734375,15.0,-1.0,21.0,-112.0,-972.0,-64.0,1643,1660.9448782249597,-47.194975774010025,
82,3.988999843597412,0.04800009727478027,20.833291113462177,20.55653126475174,102052.0,-171.0,-949.0,-45.0,14.0625,42.75,-11.375,-4.25,-1.5,4.8125,204.9375,-6.8125,94.0,-0.241455078125,-0.68994140625,0.6661376953125,0.14727783203125,-40.0,11.0,19.0,-114.0,-971.0,-67.0,1648,1658.3559025799677,-48.54335727876412,
83,4.0350000858306885,0.04600024223327637,21.739015958411727,20.570011954017772,102052.0,-193.0,-942.0,-52.0,13.6875,42.75,-10.1875,-6.25,-6.875,5.8125,204.5625,-6.9375,94.125,-0.24212646484375,-0.6910400390625,0.6654052734375,0.1451416015625,-79.0,28.0,18.0,-119.0,-970.0,-70.0,1662,1659.0847220639744,-35.66592214428697,
84,4.082000017166138,0.04699993133544922,21.276626828723902,20.578147880145192,102052.0,-219.0,-985.0,-55.0,13.6875,43.5,-11.0625,-5.75,-11.625,9.875,203.6875,-7.3125,94.4375,-0.2418212890625,-0.69287109375,0.66485595703125,0.13946533203125,-93.0,-15.0,19.0,-125.0,-969.0,-75.0,,1659.0847220639744,-35.66592214428697,
85,4.123999834060669,0.04199981689453125,23.80962761126249,20.611058055331036,102052.0,-280.0,-925.0,-53.0,14.0625,43.5,-9.5,-4.3125,-18.8125,22.4375,202.0,-8.25,94.5,-0.24273681640625,-0.693115234375,0.66619873046875,0.12969970703125,-140.0,31.0,17.0,-136.0,-968.0,-76.0,1662,1659.6677776511797,-25.756270433824703,
86,4.172999858856201,0.04900002479553223,20.408152938142575,20.608675511331597,102055.0,-310.0,-865.0,-12.0,14.0625,43.5,-9.5,-3.375,-28.0625,27.625,199.9375,-9.3125,94.5625,-0.2435302734375,-0.69287109375,0.66845703125,0.1175537109375,-151.0,99.0,64.0,-159.0,-964.0,-77.0,1629,1653.5342221209437,-45.63992421018898,
87,4.2209999561309814,0.04800009727478027,20.833291113462177,20.611229780666765,102055.0,-297.0,-904.0,-18.0,15.5625,43.1875,-10.6875,-4.75,-30.125,12.625,197.375,-10.375,94.4375,-0.2408447265625,-0.69317626953125,0.6715087890625,0.10284423828125,-120.0,56.0,56.0,-177.0,-961.0,-75.0,1648,1652.4273776967552,-41.12378178943733,
88,4.269999980926514,0.04900002479553223,20.408152938142575,20.60889938948093,102055.0,-349.0,-931.0,-44.0,16.25,42.375,-11.375,-10.625,-33.5,7.4375,195.25,-10.9375,94.625,-0.23443603515625,-0.69635009765625,0.67236328125,0.09002685546875,-163.0,28.0,33.0,-186.0,-959.0,-78.0,1648,1651.5419021574044,-36.51320947756121,
89,4.318000078201294,0.04800009727478027,20.833291113462177,20.61139379068141,102055.0,-334.0,-835.0,35.0,16.6875,42.75,-11.375,-8.8125,-36.0,12.5,192.75,-11.625,94.75,-0.228271484375,-0.69891357421875,0.67364501953125,0.07537841796875,-136.0,121.0,115.0,-198.0,-957.0,-79.0,1690,1659.2335217259235,2.8377823389434873,
90,4.363999843597412,0.045999765396118164,21.739241306747797,20.623282132340673,102055.0,-333.0,-839.0,37.0,16.25,41.6875,-11.375,-18.3125,-40.9375,1.6875,190.25,-12.125,95.0625,-0.21990966796875,-0.7034912109375,0.673095703125,0.06060791015625,-126.0,115.0,122.0,-206.0,-954.0,-84.0,1671,1661.586817380739,12.501998292385327,
91,4.412999868392944,0.04900002479553223,20.408152938142575,20.620893431646287,102055.0,-320.0,-921.0,17.0,17.375,41.6875,-11.0625,-21.6875,-44.0,-4.25,188.25,-12.125,95.625,-0.2088623046875,-0.71026611328125,0.67047119140625,0.0487060546875,-113.0,32.0,112.0,-206.0,-953.0,-94.0,1713,1671.8694539045914,51.97152239113072,
92,4.463000059127808,0.05000019073486328,19.999923706345726,20.613936540699783,102055.0,-346.0,-910.0,-2.0,16.6875,42.0625,-11.0,-20.3125,-47.125,-8.3125,186.5625,-12.125,96.0,-0.198486328125,-0.71563720703125,0.6685791015625,0.0384521484375,-140.0,42.0,98.0,-206.0,-953.0,-101.0,1756,1688.6955631236733,108.88139804416028,
93,4.510999917984009,0.04799985885620117,20.833394593842822,20.616271711563723,102055.0,-298.0,-892.0,38.0,15.5625,41.375,-11.0,-13.1875,-47.75,-12.6875,184.0,-12.25,95.8125,-0.18365478515625,-0.718505859375,0.67047119140625,0.0234375,-90.0,61.0,136.0,-208.0,-953.0,-97.0,1718,1694.5564504989388,111.52555430712388,
94,4.558000087738037,0.04700016975402832,21.27651889840869,20.623079901397862,102049.5,-236.0,-841.0,52.0,14.75,42.875,-11.25,-10.4375,-38.9375,-20.1875,182.375,-11.6875,95.875,-0.16656494140625,-0.72308349609375,0.67022705078125,0.01422119140625,-37.0,113.0,151.0,-198.0,-955.0,-99.0,1765,1708.645160399151,149.17218393491194,
95,4.602999925613403,0.04499983787536621,22.222302284058216,20.638714215781818,102049.5,-179.0,-940.0,-8.0,14.75,42.0625,-10.0625,-15.0,-32.4375,-25.625,182.125,-10.8125,96.0625,-0.15399169921875,-0.7269287109375,0.66912841796875,0.012451171875,4.0,17.0,93.0,-184.0,-957.0,-102.0,,1708.645160399151,149.17218393491194,
96,4.648000001907349,0.04500007629394531,22.222184546263723,20.65404474195472,102049.5,-232.0,-979.0,4.0,12.5,42.875,-10.5625,-7.5,-29.25,-7.5625,180.875,-10.375,96.375,-0.141357421875,-0.73150634765625,0.6669921875,0.00537109375,-55.0,-21.0,112.0,-177.0,-958.0,-108.0,1835,1733.916128319321,231.6529697048744,
97,4.697999954223633,0.04999995231628418,20.000019073504518,20.647084066655705,102049.5,-195.0,-1003.0,-37.0,11.6875,42.875,-11.0,-6.625,-16.8125,-13.8125,180.375,-9.875,96.5625,-0.1319580078125,-0.734375,0.665771484375,0.00225830078125,-26.0,-44.0,74.0,-169.0,-959.0,-111.0,2027,1792.5329026554568,419.7896967139052,
98,4.74399995803833,0.046000003814697266,21.739128631995772,20.65767303263711,102049.5,-129.0,-1039.0,-65.0,11.6875,42.875,-11.25,-19.3125,-4.75,-22.25,180.5625,-9.125,96.9375,-0.1241455078125,-0.73809814453125,0.6632080078125,0.00360107421875,26.0,-78.0,52.0,-156.0,-960.0,-117.0,2252,1884.4263221243657,735.368330624835,
99,4.790999889373779,0.04699993133544922,21.276626828723902,20.66374499811146,102049.5,-131.0,-1211.0,-225.0,10.1875,42.875,-11.0,-39.5,0.8125,-17.5625,181.1875,-8.3125,98.25,-0.11883544921875,-0.74627685546875,0.65496826171875,0.0069580078125,10.0,-250.0,-86.0,-142.0,-960.0,-139.0,1863,1880.1410576994926,570.0594700937821,
100,4.8399999141693115,0.04900002479553223,20.408152938142575,20.661157391190365,102049.5,-220.0,-1158.0,-292.0,10.1875,43.25,-9.375,-28.5625,-2.4375,11.6875,180.875,-8.4375,100.0625,-0.12042236328125,-0.75640869140625,0.64288330078125,0.005126953125,-75.0,-203.0,-122.0,-144.0,-954.0,-169.0,1587,1821.5128461595943,216.74887455582174,
101,4.88700008392334,0.04700016975402832,21.27651889840869,20.66707556078371,102049.5,-147.0,-901.0,-165.0,10.1875,43.25,-7.0,9.6875,-15.125,-8.1875,180.5,-8.5,100.0625,-0.11871337890625,-0.7567138671875,0.64288330078125,0.00311279296875,-2.0,53.0,4.0,-145.0,-954.0,-169.0,1432,1743.6102769276756,-158.09999765484466,
102,4.935999870300293,0.048999786376953125,20.40825223822499,20.664506215595704,102048.5,-74.0,-916.0,-152.0,9.75,43.5625,-7.75,-0.25,-12.375,-12.25,180.375,-8.0,99.6875,-0.111083984375,-0.7557373046875,0.6453857421875,0.002197265625,63.0,40.0,11.0,-137.0,-957.0,-163.0,1868,1768.4882215421408,-24.936924351756574,
103,4.977999925613403,0.04200005531311035,23.809492452926584,20.691040887733248,102048.5,-62.0,-997.0,-178.0,9.5,43.25,-7.75,-3.5625,-6.75,-15.6875,180.5625,-7.5625,99.8125,-0.10638427734375,-0.75714111328125,0.64453125,0.0032958984375,67.0,-39.0,-13.0,-129.0,-957.0,-165.0,1957,1806.1905772337127,159.5852511778019,
104,5.0289998054504395,0.05099987983703613,19.607889336119566,20.680056477092045,102048.5,-124.0,-920.0,-120.0,8.375,43.5625,-7.375,4.4375,-9.75,-5.875,180.6875,-7.125,99.6875,-0.10107421875,-0.75714111328125,0.64532470703125,0.00408935546875,-3.0,38.0,43.0,-121.0,-959.0,-163.0,1788,1802.55246178697,113.40104792789018,
105,5.075999975204468,0.04700016975402832,21.27651889840869,20.685579297263583,102048.5,-42.0,-839.0,-76.0,7.5625,42.875,-7.375,27.25,-30.0,-15.125,180.25,-6.75,99.0,-0.09295654296875,-0.75445556640625,0.64971923828125,0.00146484375,73.0,122.0,76.0,-116.0,-961.0,-152.0,1657,1773.4419694295761,-33.153149814502555,
106,5.121999979019165,0.046000003814697266,21.739128631995772,20.695041084380954,102048.5,-78.0,-847.0,-52.0,7.5625,42.875,-7.375,19.0,-27.75,-23.875,179.8125,-6.125,97.875,-0.0810546875,-0.74957275390625,0.656982421875,-0.0008544921875,26.0,118.0,81.0,-105.0,-965.0,-134.0,1652,1749.1535755436612,-132.12422364169902,
107,5.16700005531311,0.04500007629394531,22.222184546263723,20.708341175644907,102048.5,44.0,-925.0,-80.0,7.25,43.5625,-9.0,23.5,-32.9375,-35.125,179.75,-4.875,96.75,-0.06292724609375,-0.74493408203125,0.66412353515625,-0.0013427734375,128.0,44.0,35.0,-83.0,-970.0,-115.0,1573,1713.9228604349291,-262.2800694819763,
108,5.2149999141693115,0.04799985885620117,20.833394593842822,20.70949219127708,102048.5,35.0,-897.0,-49.0,5.375,44.0,-10.5625,29.0625,-33.0625,-42.3125,180.0625,-2.9375,95.1875,-0.03900146484375,-0.737548828125,0.6741943359375,0.000732421875,85.0,77.0,40.0,-50.0,-975.0,-89.0,1488,1668.7382883479436,-398.09365955400233,
109,5.260999917984009,0.046000003814697266,21.739128631995772,20.718494905768466,102048.5,49.0,-898.0,-12.0,5.0,44.0,-10.0625,38.375,-37.0,-32.5625,180.125,-1.5,93.625,-0.02081298828125,-0.72900390625,0.68414306640625,0.0009765625,21.0,104.0,79.0,-26.0,-978.0,-62.0,1380,1610.990630678355,-569.5516792983303,
110,5.307999849319458,0.04699993133544922,21.276626828723902,20.72343691081739,102050.5,1.0,-734.0,43.0,3.0625,43.5625,-12.0625,6.0625,-34.0625,-17.5,179.3125,-0.6875,92.3125,-0.00518798828125,-0.7215576171875,0.69232177734375,-0.00408935546875,24.0,230.0,64.0,-12.0,-979.0,-40.0,1549,1598.592504542684,-508.3994040714883,
111,5.358000040054321,0.05000019073486328,19.999923706345726,20.716685175477274,102050.5,-42.0,-1052.0,104.0,1.5625,43.25,-14.0625,-9.25,-30.75,18.4375,177.6875,-0.6875,92.3125,0.0054931640625,-0.72137451171875,0.6923828125,-0.01373291015625,-23.0,-112.0,119.0,-11.0,-979.0,-40.0,1451,1569.0740036341474,-524.7930764764768,
112,5.4029998779296875,0.04499983787536621,22.222302284058216,20.72922497324134,102050.5,13.0,-1053.0,75.0,1.25,43.5625,-14.5,6.4375,-22.375,59.75,174.375,-2.9375,92.3125,-0.00238037109375,-0.72119140625,0.69189453125,-0.03387451171875,41.0,-68.0,110.0,-51.0,-978.0,-39.0,1469,1549.059202907318,-508.78945156253985,
113,5.450999975204468,0.04800009727478027,20.833291113462177,20.730141352782038,102050.5,-135.0,-874.0,-150.0,1.5625,42.5,-11.6875,-11.375,-46.6875,20.1875,170.8125,-5.3125,91.9375,-0.0096435546875,-0.718994140625,0.6927490234375,-0.05560302734375,-44.0,109.0,-118.0,-87.0,-976.0,-32.0,1292,1497.6473623258546,-621.2471295525389,
114,5.499000072479248,0.04800009727478027,20.833291113462177,20.731041734393468,102050.5,-35.0,-1122.0,69.0,3.0,44.0,-14.0,-21.6875,-63.875,7.125,167.875,-5.625,92.5625,0.00469970703125,-0.7227783203125,0.68719482421875,-0.072998046875,65.0,-249.0,214.0,-97.0,-974.0,-43.0,1455,1489.1178898606838,-532.5371002242638,
115,5.543999910354614,0.04499983787536621,22.222302284058216,20.743146078558322,102050.5,-136.0,-1277.0,-116.0,3.0,43.25,-14.375,-35.4375,-27.5,15.25,165.125,-6.625,93.75,0.00982666015625,-0.72998046875,0.6776123046875,-0.08837890625,-85.0,-296.0,-92.0,-113.0,-971.0,-64.0,1366,1464.4943118885471,-535.4681987817908,
116,5.5889997482299805,0.04499983787536621,22.222302284058216,20.755055506441355,102050.5,-154.0,-1202.0,-146.0,3.0625,43.5625,-12.0,-8.0,-30.6875,2.75,163.9375,-6.875,94.1875,0.01385498046875,-0.73236083984375,0.674072265625,-0.094970703125,-61.0,-231.0,-75.0,-118.0,-970.0,-71.0,1132,1397.995449510838,-723.9261232861206,
117,5.636999845504761,0.04800009727478027,20.833291113462177,20.755721697119068,102050.5,-158.0,-1016.0,-92.0,3.5,44.375,-11.1875,-3.75,-32.5625,-12.1875,162.5625,-6.6875,94.125,0.02484130859375,-0.731689453125,0.67333984375,-0.10302734375,-43.0,-45.0,-22.0,-115.0,-971.0,-70.0,1390,1396.3963596086703,-585.8037597185877,
118,5.679999828338623,0.042999982833862305,23.25582323750381,20.774648515176896,102052.75,-143.0,-964.0,-67.0,2.6875,44.75,-11.1875,-9.0625,-34.125,-15.1875,161.5,-6.125,94.3125,0.03912353515625,-0.73199462890625,0.67132568359375,-0.10931396484375,-38.0,8.0,5.0,-105.0,-972.0,-73.0,1100,1337.1170876869362,-744.3606616668244,
119,5.727999925613403,0.04800009727478027,20.833291113462177,20.77513993460055,102052.75,-95.0,-840.0,-24.0,2.6875,44.75,-11.1875,-6.5,-35.375,-19.3125,160.6875,-5.5625,94.4375,0.05181884765625,-0.732177734375,0.66949462890625,-0.11376953125,0.0,133.0,51.0,-95.0,-973.0,-76.0,1287,1327.093670149549,-637.252684435093,
120,5.776000022888184,0.04800009727478027,20.833291113462177,20.775623186371835,102052.75,-77.0,-762.0,-8.0,2.25,43.25,-11.6875,-10.625,-37.5,-17.6875,159.6875,-4.8125,94.6875,0.06787109375,-0.7325439453125,0.666748046875,-0.1192626953125,4.0,210.0,72.0,-82.0,-973.0,-80.0,1357,1333.0749361196395,-484.8802565116869,
121,5.823999881744385,0.04799985885620117,20.833394593842822,20.776099322955083,102052.75,-47.0,-759.0,11.0,0.75,45.5,-10.875,0.875,-25.75,-16.3125,158.9375,-4.125,94.5625,0.0816650390625,-0.73028564453125,0.6668701171875,-0.12396240234375,23.0,215.0,89.0,-70.0,-974.0,-78.0,1413,1349.0599488957118,-321.29978945904264,
122,5.875,0.051000118255615234,19.607797671918096,20.76595744680851,102052.75,-11.0,-821.0,23.0,-0.25,45.0625,-10.875,-0.875,-22.25,-7.0,158.1875,-3.6875,94.25,0.09149169921875,-0.7274169921875,0.66790771484375,-0.1282958984375,51.0,154.0,97.0,-63.0,-975.0,-73.0,1498,1378.8479591165697,-140.22437607531242,
123,5.921999931335449,0.04699993133544922,21.276626828723902,20.770010372536884,102052.75,2.0,-860.0,39.0,-1.0625,45.875,-11.1875,-2.0625,-12.25,-9.9375,157.6875,-3.375,94.3125,0.0986328125,-0.7265625,0.667236328125,-0.13128662109375,60.0,115.0,113.0,-58.0,-976.0,-73.0,1264,1355.8783672932557,-209.9225875868018,
124,5.9700000286102295,0.04800009727478027,20.833291113462177,20.770519163442327,102052.75,27.0,-959.0,33.0,-1.5,45.5,-10.0,0.375,0.625,-11.875,158.125,-2.75,94.3125,0.10382080078125,-0.72613525390625,0.66741943359375,-0.12872314453125,74.0,16.0,108.0,-47.0,-976.0,-74.0,1179,1320.5026938346045,-315.33641076921276,
125,6.01800012588501,0.04800009727478027,20.833291113462177,20.771019838025918,102052.75,48.0,-978.0,50.0,-2.5625,45.0625,-10.5,-10.25,11.6875,-9.25,158.75,-2.375,94.625,0.1046142578125,-0.72833251953125,0.6658935546875,-0.1231689453125,88.0,-2.0,132.0,-39.0,-976.0,-81.0,1207,1297.8021550676838,-346.8545151281091,
126,6.063999891281128,0.045999765396118164,21.739241306747797,20.77836448862143,102046.25,-24.0,-1146.0,-63.0,-2.1875,45.5,-9.75,-13.0625,23.0,-21.0,160.5625,-1.5,95.1875,0.10498046875,-0.73175048828125,0.664306640625,-0.11041259765625,-174.0,-36.0,38.0,-21.0,-976.0,-91.0,1193,1276.841724054147,-368.61638564183005,
127,6.111999988555908,0.04800009727478027,20.833291113462177,20.778795850424483,102046.25,-1.0,-1165.0,-72.0,-2.5625,45.0625,-9.375,-13.875,43.0625,-47.0,164.4375,0.4375,95.5,0.10662841796875,-0.73406982421875,0.66522216796875,-0.08526611328125,-20.0,-261.0,21.0,16.0,-976.0,-94.0,1175,1256.4733792433176,-379.76103990214165,
128,6.161999940872192,0.04999995231628418,20.000019073504518,20.772476668002437,102046.25,-54.0,-1600.0,-287.0,-3.6875,45.5,-9.375,-25.625,36.3125,-7.375,168.125,1.875,96.8125,0.10418701171875,-0.7420654296875,0.65863037109375,-0.0684814453125,-89.0,-628.0,-166.0,34.0,-972.0,-120.0,1123,1229.7787033946543,-410.58763714857076,
129,6.206000089645386,0.04400014877319336,22.72719588187483,20.78633550380292,102046.25,-116.0,-1150.0,-161.0,-5.1875,45.875,-9.75,27.25,18.8125,4.6875,169.1875,2.0625,96.6875,0.0972900390625,-0.74078369140625,0.6617431640625,-0.06243896484375,-113.0,-260.0,-79.0,35.0,-973.0,-109.0,1063,1196.4229627157233,-480.0866001578735,
130,6.255999803543091,0.04999971389770508,20.00011444157281,20.78005180345025,102046.25,-103.0,-999.0,-112.0,-5.1875,45.0625,-8.5625,20.4375,10.75,7.5,169.625,1.8125,95.4375,0.0902099609375,-0.7344970703125,0.669921875,-0.060546875,-135.0,-24.0,-19.0,31.0,-975.0,-93.0,1063,1169.7383701725787,-490.80826106422535,
131,6.305999994277954,0.05000019073486328,19.999923706345726,20.773866178063592,102046.25,-108.0,-960.0,-105.0,-4.5,46.25,-10.0625,22.125,-8.125,-8.5,169.6875,1.9375,94.5625,0.091064453125,-0.72906494140625,0.6756591796875,-0.06072998046875,-142.0,16.0,-27.0,33.0,-976.0,-78.0,1063,1148.390696138063,-478.0369792510304,
132,6.352999925613403,0.04699993133544922,21.276626828723902,20.77758563601037,102046.25,-73.0,-755.0,-30.0,-4.75,45.5,-11.0,24.6875,-14.5,-0.8125,169.1875,2.0625,93.3125,0.09521484375,-0.7210693359375,0.6832275390625,-0.06463623046875,-109.0,223.0,25.0,36.0,-978.0,-56.0,1034,1125.5125569104505,-479.7835095771248,
133,6.4009997844696045,0.04799985885620117,20.833394593842822,20.7780041365867,102046.25,-52.0,-720.0,-21.0,-5.5,45.875,-11.25,19.25,-17.6875,5.0625,168.125,1.875,92.375,0.0985107421875,-0.7152099609375,0.688232421875,-0.0712890625,-85.0,258.0,20.0,32.0,-979.0,-41.0,1030,1106.4100455283606,-463.4208391329904,
134,6.446000099182129,0.045000314712524414,22.222066809716814,20.788085314643723,102052.5,-59.0,-760.0,-24.0,-4.0625,45.5,-12.875,11.125,-23.5,4.9375,167.0625,1.5,91.8125,0.09979248046875,-0.71160888671875,0.6910400390625,-0.0782470703125,-85.0,219.0,7.0,26.0,-979.0,-32.0,1100,1105.1280364226886,-376.4344497057737,
135,6.490999937057495,0.04499983787536621,22.222302284058216,20.798028240499153,102052.5,-93.0,-763.0,-36.0,-5.5,45.0625,-13.1875,4.25,-34.75,1.0625,164.875,0.8125,91.5,0.10430908203125,-0.70892333984375,0.69146728515625,-0.09161376953125,-107.0,216.0,-10.0,14.0,-980.0,-26.0,1118,1107.7024291381508,-289.70577314044334,
136,6.539000034332275,0.04800009727478027,20.833291113462177,20.798287090678617,102052.5,-154.0,-911.0,-75.0,-6.25,45.0625,-12.875,5.875,-57.0625,3.4375,162.1875,0.625,91.4375,0.11907958984375,-0.7060546875,0.689697265625,-0.10797119140625,-166.0,68.0,-50.0,11.0,-980.0,-24.0,1165,1119.1619433105207,-184.01673955798938,
137,6.586999893188477,0.04799985885620117,20.833394593842822,20.798542921136185,102052.5,-194.0,-916.0,-75.0,-6.6875,45.875,-12.875,-0.9375,-76.5,-5.125,158.5625,0.625,91.125,0.140869140625,-0.7001953125,0.687744140625,-0.1300048828125,-205.0,64.0,-55.0,11.0,-980.0,-19.0,1231,1141.5295546484165,-54.014737021572245,
138,6.634999990463257,0.04800009727478027,20.833291113462177,20.798794302690695,102052.5,-166.0,-1099.0,-198.0,-8.1875,45.0625,-12.0,4.875,-91.625,-4.1875,154.1875,0.75,91.3125,0.16937255859375,-0.695068359375,0.6810302734375,-0.156005859375,-180.0,-118.0,-175.0,13.0,-980.0,-23.0,1423,1197.8236437187334,191.34643949655845,
139,6.681999921798706,0.04699993133544922,21.276626828723902,20.802155286853555,102052.5,-217.0,-1174.0,-171.0,-8.875,47.0,-12.0625,-9.1875,-105.625,5.8125,149.875,0.625,91.3125,0.193603515625,-0.68865966796875,0.6748046875,-0.1812744140625,-228.0,-194.0,-148.0,11.0,-980.0,-23.0,1441,1246.4589149749868,360.03605504385996,
140,6.727999925613403,0.046000003814697266,21.739128631995772,20.80856146668818,102052.5,-280.0,-1155.0,-250.0,-10.375,46.25,-11.0,-13.1875,-121.25,-4.0,143.5,0.25,92.3125,0.22869873046875,-0.68426513671875,0.65765380859375,-0.21661376953125,-284.0,-175.0,-210.0,4.0,-979.0,-40.0,1423,1281.7671319799895,441.54281828272275,
141,6.776000022888184,0.04800009727478027,20.833291113462177,20.808736647539227,102052.5,-163.0,-1194.0,-256.0,-11.5,46.25,-11.0,-16.125,-120.375,-21.375,139.25,0.6875,92.8125,0.26019287109375,-0.67620849609375,0.646240234375,-0.23968505859375,-209.0,-200.0,-196.0,11.0,-979.0,-48.0,1348,1295.0137055839919,408.42819945579527,
142,6.82099986076355,0.04499983787536621,22.222302284058216,20.81806229271853,102042.75,-110.0,-1073.0,-242.0,-11.5,46.5625,-9.0,-15.0,-119.0,-14.5,133.6875,1.25,93.8125,0.30224609375,-0.66510009765625,0.62786865234375,-0.26837158203125,-132.0,-95.0,-176.0,22.0,-978.0,-66.0,1399,1315.8109644671936,419.17515428110096,
143,6.871000051498413,0.05000019073486328,19.999923706345726,20.812108707351104,102042.75,-38.0,-888.0,-157.0,-14.1875,49.25,-8.1875,-5.3125,-113.625,-8.4375,128.0,1.1875,94.4375,0.335693359375,-0.6527099609375,0.6104736328125,-0.29766845703125,-59.0,89.0,-81.0,20.0,-977.0,-75.0,1231,1298.848771573755,267.4916106726622,
144,6.914999961853027,0.04399991035461426,22.72731903180185,20.82429512572434,102042.75,9.0,-863.0,-98.0,-14.375,47.375,-5.1875,-6.0,-104.8125,-7.375,122.6875,1.1875,94.8125,0.3665771484375,-0.63861083984375,0.59381103515625,-0.32427978515625,-11.0,113.0,-15.0,21.0,-977.0,-81.0,1175,1274.0790172590039,101.40326680799035,
145,6.96399998664856,0.04900002479553223,20.408152938142575,20.821367070361177,102042.75,58.0,-861.0,-87.0,-15.25,48.875,-4.375,-0.1875,-92.3125,-11.0625,118.9375,1.1875,95.0625,0.38824462890625,-0.627197265625,0.5816650390625,-0.34283447265625,37.0,115.0,-1.0,21.0,-976.0,-86.0,1114,1242.063213807203,-49.554069209980554,
146,7.008999824523926,0.04499983787536621,22.222302284058216,20.830361485979463,102042.75,138.0,-829.0,-22.0,-16.6875,51.5,-2.0625,4.0,-69.5,-10.8125,115.3125,1.4375,94.9375,0.40997314453125,-0.612548828125,0.57098388671875,-0.36151123046875,113.0,146.0,62.0,24.0,-976.0,-84.0,1451,1283.8505710457625,146.07900147345495,
147,7.059000015258789,0.05000019073486328,19.999923706345726,20.824479343000945,102042.75,176.0,-876.0,-10.0,-16.6875,51.875,-1.875,2.0625,-43.1875,-5.8125,112.875,1.625,94.9375,0.4248046875,-0.60260009765625,0.5631103515625,-0.37335205078125,148.0,100.0,75.0,27.0,-976.0,-85.0,1203,1267.6804568366101,52.182991077574925,
148,7.107999801635742,0.048999786376953125,20.40825223822499,20.821610035208668,102042.75,177.0,-918.0,-31.0,-16.6875,50.375,-2.5625,-3.4375,-14.5,-11.5,111.8125,1.8125,95.0,0.4329833984375,-0.59710693359375,0.55938720703125,-0.37835693359375,146.0,42.0,59.0,31.0,-976.0,-86.0,1179,1249.9443654692882,-30.646132406842206,
149,7.1529998779296875,0.04500007629394531,22.222184546263723,20.83042115794436,102042.75,165.0,-1003.0,-61.0,-17.875,51.875,-1.6875,-7.3125,7.1875,-21.5,112.5625,2.5625,95.25,0.4376220703125,-0.59539794921875,0.56048583984375,-0.3740234375,121.0,-36.0,10.0,44.0,-975.0,-90.0,1165,1232.9554923754306,-100.02288055042531,
150,7.203000068664551,0.05000019073486328,19.999923706345726,20.82465619465283,102047.25,149.0,-946.0,-74.0,-18.6875,51.875,-1.875,-12.9375,25.125,-15.5,114.4375,3.5625,95.5,0.43865966796875,-0.5963134765625,0.56536865234375,-0.36376953125,88.0,-6.0,5.0,60.0,-974.0,-94.0,1128,1211.9643939003445,-163.98237804316278,
151,7.250999927520752,0.04799985885620117,20.833394593842822,20.82471404073364,102047.25,8.0,-1192.0,-236.0,-19.25,52.5625,-2.5625,-29.1875,33.875,10.9375,116.0625,3.625,97.0,0.43634033203125,-0.6090087890625,0.56201171875,-0.3504638671875,-114.0,-173.0,-132.0,62.0,-971.0,-120.0,1156,1200.7715151202756,-177.8230344877753,
152,7.299000024795532,0.04800009727478027,20.833291113462177,20.824770445765,102047.25,-51.0,-1043.0,-240.0,-20.0,53.75,-2.5625,14.9375,32.75,4.25,117.625,3.4375,96.9375,0.42620849609375,-0.6153564453125,0.5672607421875,-0.34332275390625,-77.0,-28.0,-122.0,59.0,-971.0,-118.0,1137,1188.0172120962206,-195.40124916010973,
153,7.3459999561309814,0.04699993133544922,21.276626828723902,20.82766143665792,102047.25,-5.0,-917.0,-198.0,-19.875,54.375,-4.5625,-6.625,11.4375,1.25,118.6875,3.5625,96.625,0.42034912109375,-0.61749267578125,0.57196044921875,-0.33892822265625,-80.0,38.0,-105.0,61.0,-972.0,-113.0,1184,1187.2137696769767,-159.7399082346121,
154,7.394999980926514,0.04900002479553223,20.408152938142575,20.824881730521042,102047.25,0.0,-968.0,-189.0,-19.375,54.375,-4.5625,-9.9375,-2.0625,4.4375,118.6875,3.4375,96.875,0.420166015625,-0.619384765625,0.570556640625,-0.33807373046875,-45.0,2.0,-71.0,59.0,-971.0,-117.0,1165,1182.7710157415813,-145.9256069437062,
155,7.438999891281128,0.04399991035461426,22.72731903180185,20.836134193477754,102047.25,-19.0,-1016.0,-197.0,-18.5625,54.75,-5.375,-9.375,-16.5625,3.9375,117.375,2.75,97.875,0.4229736328125,-0.62451171875,0.56109619140625,-0.3409423828125,-66.0,-46.0,-62.0,47.0,-970.0,-135.0,1170,1180.216812593265,-128.35052351972806,
156,7.488999843597412,0.04999995231628418,20.000019073504518,20.830551910529074,102047.25,25.0,-901.0,-130.0,-19.375,54.0,-6.5625,3.625,-24.5625,-4.8125,116.1875,2.5625,98.0,0.4281005859375,-0.62188720703125,0.556640625,-0.3465576171875,-19.0,68.0,7.0,44.0,-969.0,-137.0,1516,1247.373450074612,165.946387292091,
157,7.532999753952026,0.04399991035461426,22.72731903180185,20.841630841370108,102047.25,69.0,-906.0,-125.0,-17.75,52.875,-6.5625,-4.5625,-31.3125,-8.875,115.0,2.8125,98.125,0.437255859375,-0.61602783203125,0.55267333984375,-0.35198974609375,20.0,63.0,13.0,48.0,-969.0,-138.0,1507,1299.2987600596898,368.7817270048866,
158,7.582000017166138,0.04900026321411133,20.40805363902648,20.838828757884173,102042.0,52.0,-904.0,-140.0,-18.5,52.0625,-4.1875,-8.9375,-41.6875,-3.9375,113.1875,2.875,98.625,0.44879150390625,-0.61114501953125,0.54443359375,-0.35870361328125,3.0,64.0,6.0,49.0,-968.0,-146.0,1587,1356.839008047752,529.8822750725611,
159,7.631999969482422,0.04999995231628418,20.000019073504518,20.83333341663822,102042.0,11.0,-1016.0,-193.0,-18.5,53.5625,-4.0625,-17.875,-49.25,3.1875,110.625,2.5,99.4375,0.46197509765625,-0.6072998046875,0.5316162109375,-0.36761474609375,-32.0,-50.0,-32.0,43.0,-966.0,-161.0,1502,1385.8712064382019,540.0347243690017,
160,7.678999900817871,0.04699993133544922,21.276626828723902,20.836046629321977,102042.0,29.0,-952.0,-211.0,-18.5,53.5625,-4.0625,-1.375,-55.1875,7.1875,108.0,1.9375,99.8125,0.47088623046875,-0.60296630859375,0.52093505859375,-0.37847900390625,-4.0,13.0,-44.0,33.0,-965.0,-167.0,1432,1395.0969651505616,471.28638456214657,
161,7.726999998092651,0.04800009727478027,20.833291113462177,20.836029512066983,102042.0,-3.0,-852.0,-162.0,-18.0625,53.5625,-5.25,-3.0625,-61.75,11.5,104.125,1.0,99.875,0.481689453125,-0.59515380859375,0.50750732421875,-0.395263671875,-21.0,112.0,6.0,18.0,-965.0,-169.0,1526,1421.2775721204493,486.11474895587907,
162,7.778000116348267,0.051000118255615234,19.607797671918096,20.82797603197494,102042.0,17.0,-874.0,-176.0,-18.0625,52.375,-3.6875,-10.8125,-60.3125,9.875,100.0,0.0,100.25,0.492919921875,-0.58856201171875,0.4910888671875,-0.41162109375,17.0,90.0,0.0,0.0,-964.0,-175.0,1573,1451.6220576963597,507.88950589088057,
163,7.825999975204468,0.04799985885620117,20.833394593842822,20.828009266092714,102042.0,56.0,-939.0,-182.0,-18.25,52.0625,-3.6875,-15.875,-49.9375,2.625,96.5625,-0.6875,100.9375,0.50555419921875,-0.582763671875,0.47503662109375,-0.4232177734375,68.0,23.0,4.0,-12.0,-962.0,-186.0,1427,1446.6976461570878,385.79316296467965,
164,7.874000072479248,0.04800009727478027,20.833291113462177,20.82804146436363,102042.0,68.0,-1059.0,-230.0,-17.5,52.375,-2.5,-20.3125,-32.375,7.375,93.9375,-1.375,101.8125,0.515380859375,-0.58062744140625,0.4609375,-0.42987060546875,92.0,-100.0,-29.0,-23.0,-959.0,-201.0,1394,1436.1581169256701,264.71991423635006,
165,7.920999765396118,0.04699969291687012,21.276734760134126,20.830703811004163,102042.0,-8.0,-1032.0,-245.0,-17.0625,52.25,-2.375,-5.875,-22.3125,7.3125,92.375,-1.875,102.3125,0.520263671875,-0.57977294921875,0.4515380859375,-0.43511962890625,3.0,32.0,1.0,-33.0,-957.0,-209.0,1638,1476.5264935405362,383.5573797754213,
166,7.968999862670898,0.04800009727478027,20.833291113462177,20.83071939523955,102046.5,-21.0,-884.0,-180.0,-17.25,51.5625,-0.75,-3.0,-3.75,0.125,91.625,-2.0625,102.3125,0.5216064453125,-0.57843017578125,0.449951171875,-0.43695068359375,16.0,51.0,22.0,-35.0,-957.0,-210.0,1535,1488.221194832429,355.57372712013444,
167,8.014999866485596,0.046000003814697266,21.739128631995772,20.835932973412,102046.5,-25.0,-947.0,-216.0,-16.5,50.75,0.0,-10.625,5.75,6.6875,91.5625,-2.25,102.8125,0.5216064453125,-0.58203125,0.44720458984375,-0.43499755859375,13.0,7.0,0.0,-39.0,-955.0,-217.0,1320,1454.5769558659433,138.17969397249982,
168,8.06499981880188,0.04999995231628418,20.000019073504518,20.830750622999734,102046.5,-25.0,-940.0,-205.0,-16.0625,50.75,0.75,-8.75,8.4375,-2.0,91.875,-2.3125,103.1875,0.52117919921875,-0.58551025390625,0.4461669921875,-0.43182373046875,14.0,13.0,19.0,-39.0,-953.0,-224.0,1268,1417.2615646927547,-38.71795186181086,
169,8.110000133514404,0.045000314712524414,22.222066809716814,20.838470680365475,102046.5,-25.0,-950.0,-184.0,-15.75,51.1875,0.0,-8.9375,16.3125,-4.625,92.8125,-1.9375,103.6875,0.5216064453125,-0.5885009765625,0.44757080078125,-0.42578125,7.0,1.0,47.0,-33.0,-952.0,-232.0,1254,1384.6092517542038,-176.09473741190067,
170,8.15999984741211,0.04999971389770508,20.00011444157281,20.833333722906183,102046.5,21.0,-959.0,-180.0,-15.25,50.5,-0.25,-3.5,26.8125,-7.375,94.25,-1.4375,103.8125,0.5198974609375,-0.5908203125,0.4522705078125,-0.41961669921875,29.0,-24.0,52.0,-25.0,-951.0,-234.0,1156,1338.8874014033631,-323.76423782897643,
171,8.210000038146973,0.05000019073486328,19.999923706345726,20.828258124904387,102046.5,30.0,-912.0,-172.0,-16.375,50.0625,0.875,-3.25,36.9375,-7.4375,97.1875,-0.5625,103.875,0.514404296875,-0.5963134765625,0.4622802734375,-0.40753173828125,40.0,39.0,63.0,-10.0,-951.0,-235.0,1100,1291.1099211226906,-450.12058236215876,
172,8.256999731063843,0.04699969291687012,21.276734760134126,20.83081090010394,102046.5,-2.0,-1015.0,-237.0,-16.0,49.6875,0.0625,-1.5,36.125,-4.9375,100.8125,0.0,104.0625,0.50225830078125,-0.60772705078125,0.47418212890625,-0.39190673828125,-2.0,-64.0,0.0,0.0,-951.0,-238.0,1193,1271.4879368981524,-443.59481665233415,
173,8.302000045776367,0.045000314712524414,22.222066809716814,20.83835208938761,102051.0,-18.0,-909.0,-181.0,-18.1875,49.25,-1.0625,16.875,27.1875,2.0,104.3125,0.3125,103.5,0.4857177734375,-0.61712646484375,0.48895263671875,-0.37969970703125,-24.0,43.0,47.0,6.0,-953.0,-229.0,1240,1265.190349518522,-382.8649348199025,
174,8.348999738693237,0.04699969291687012,21.276734760134126,20.840819912066976,102051.0,-14.0,-920.0,-165.0,-17.0625,49.1875,-1.0625,4.1875,14.875,3.5625,106.8125,0.4375,103.0,0.471923828125,-0.6246337890625,0.49957275390625,-0.37091064453125,-22.0,34.0,55.0,7.0,-955.0,-221.0,1193,1250.7522796148178,-367.7309446138,
175,8.396999835968018,0.04800009727478027,20.833291113462177,20.84077687490222,102051.0,20.0,-935.0,-144.0,-16.0,48.0625,-3.0625,10.0,0.3125,1.625,108.5,0.375,102.6875,0.46038818359375,-0.6307373046875,0.5069580078125,-0.3648681640625,14.0,21.0,70.0,6.0,-956.0,-215.0,1207,1242.0018236918543,-330.64491481476364,
176,8.446000099182129,0.04900026321411133,20.40805363902648,20.838266390387922,102051.0,59.0,-975.0,-122.0,-17.0625,49.5625,-4.25,6.5625,-10.125,-5.4375,109.75,0.375,102.3125,0.45281982421875,-0.634033203125,0.51275634765625,-0.360595703125,53.0,-17.0,87.0,6.0,-957.0,-209.0,1278,1249.2014589534833,-235.12982333166048,
177,8.495999813079834,0.04999971389770508,20.00011444157281,20.8333337916867,102051.0,91.0,-984.0,-128.0,-16.75,48.875,-3.5,6.0625,-15.1875,-4.0,110.375,0.5,102.0625,0.449462890625,-0.63458251953125,0.51641845703125,-0.35870361328125,82.0,-25.0,76.0,8.0,-958.0,-205.0,1226,1244.5611671627867,-206.66513203657323,
178,8.54099988937378,0.04500007629394531,22.222184546263723,20.840651247573174,102051.0,83.0,-984.0,-138.0,-16.75,48.1875,-2.6875,2.625,-15.9375,-3.625,111.5,1.1875,101.1875,0.44866943359375,-0.62945556640625,0.5244140625,-0.3570556640625,62.0,-22.0,53.0,20.0,-961.0,-191.0,1198,1235.2489337302295,-206.719739604493,
179,8.586999893188477,0.046000003814697266,21.739128631995772,20.84546433289109,102051.0,77.0,-956.0,-190.0,-16.375,48.5625,-3.0625,4.5625,-19.1875,-3.1875,111.75,1.25,101.0625,0.4476318359375,-0.6292724609375,0.52606201171875,-0.35626220703125,55.0,5.0,-1.0,22.0,-961.0,-189.0,1278,1243.7991469841836,-128.20095453185374,
180,8.63699984550476,0.04999995231628418,20.000019073504518,20.84057001502476,102051.0,86.0,-913.0,-194.0,-16.0,48.1875,-2.25,7.0,-21.75,-2.0625,111.8125,1.25,100.8125,0.4462890625,-0.6285400390625,0.52752685546875,-0.3570556640625,65.0,49.0,-9.0,21.0,-962.0,-184.0,1254,1245.8393175873468,-94.40007343018942,
181,8.681999921798706,0.04500007629394531,22.222184546263723,20.847731125353555,102045.0,106.0,-886.0,-197.0,-16.5,47.0625,-2.6875,7.3125,-24.3125,-7.25,111.8125,1.5,100.625,0.44854736328125,-0.6256103515625,0.52862548828125,-0.357666015625,80.0,76.0,-15.0,26.0,-963.0,-181.0,1254,1247.4714540698776,-68.26613112025385,
182,8.7260000705719,0.04400014877319336,22.72719588187483,20.857208174199773,102045.0,122.0,-899.0,-207.0,-17.5625,46.6875,-3.0625,2.125,-21.9375,-12.0625,111.8125,2.3125,100.8125,0.4581298828125,-0.61956787109375,0.52801513671875,-0.3570556640625,85.0,64.0,-19.0,40.0,-962.0,-183.0,1264,1250.7771632559022,-39.587004856344194,
183,8.774999856948853,0.048999786376953125,20.40825223822499,20.854701194676803,102045.0,131.0,-919.0,-205.0,-17.5625,46.6875,-3.0625,-0.4375,-16.0625,-8.625,113.0,3.4375,101.0625,0.46478271484375,-0.616455078125,0.530029296875,-0.35076904296875,72.0,41.0,-17.0,59.0,-960.0,-188.0,1287,1258.0217306047218,-2.099812322771495,
184,8.822999954223633,0.04800009727478027,20.833291113462177,20.854584716609672,102045.0,114.0,-943.0,-204.0,-16.875,46.25,-3.5,-3.4375,-8.375,-3.375,113.9375,3.8125,101.25,0.46478271484375,-0.61785888671875,0.53179931640625,-0.34552001953125,48.0,16.0,-12.0,66.0,-959.0,-191.0,1236,1253.6173844837774,-20.031254838633757,
185,8.871999979019165,0.04900002479553223,20.408152938142575,20.852119075461548,102045.0,74.0,-970.0,-184.0,-17.875,46.6875,-3.875,-10.3125,-2.8125,-3.3125,115.0625,4.0,101.6875,0.462158203125,-0.62249755859375,0.53289794921875,-0.33905029296875,5.0,-12.0,14.0,69.0,-957.0,-198.0,1301,1263.093907587022,22.654662691664115,
186,8.914000034332275,0.04200005531311035,23.809492452926584,20.866053318781795,102045.0,74.0,-976.0,-201.0,-17.75,46.25,-3.5,-16.9375,-0.8125,-3.9375,116.25,4.125,102.25,0.458984375,-0.628662109375,0.5330810546875,-0.33148193359375,-5.0,-53.0,0.0,71.0,-955.0,-207.0,1268,1264.0751260696175,22.796192964537326,
187,8.962000131607056,0.04800009727478027,20.833291113462177,20.865877845782553,102045.0,57.0,-1064.0,-221.0,-17.75,45.1875,-1.875,-12.625,1.5,-3.6875,117.3125,4.3125,103.0,0.45758056640625,-0.6348876953125,0.53173828125,-0.32373046875,-21.0,-112.0,10.0,74.0,-952.0,-220.0,1245,1260.260100855694,2.341048194256576,
188,9.01199984550476,0.04999971389770508,20.00011444157281,20.861074481018274,102045.0,54.0,-1058.0,-212.0,-18.25,45.1875,-2.6875,-11.125,3.6875,-5.125,118.625,4.5,103.4375,0.45391845703125,-0.6405029296875,0.5328369140625,-0.31591796875,-19.0,-100.0,11.0,77.0,-950.0,-228.0,1245,1257.2080806845552,-10.335311984747635,
189,9.056999921798706,0.04500007629394531,22.222184546263723,20.86783721231002,102045.0,51.0,-1064.0,-204.0,-17.75,44.75,-2.1875,-5.9375,3.9375,-5.0,119.8125,4.5625,103.625,0.44903564453125,-0.6448974609375,0.53509521484375,-0.31005859375,-27.0,-114.0,25.0,79.0,-949.0,-230.0,1146,1234.9664645476441,-107.11970926811695,
190,9.103999853134155,0.04699993133544922,21.276626828723902,20.869947612596935,102051.0,54.0,-1033.0,-189.0,-18.6875,44.5,-1.5,2.25,3.5625,-1.0,120.8125,4.6875,103.375,0.4437255859375,-0.64703369140625,0.539306640625,-0.3060302734375,-21.0,-81.0,30.0,81.0,-950.0,-226.0,1095,1206.9731716381152,-204.81633680313547,
191,9.15499997138977,0.051000118255615234,19.607797671918096,20.862916504302877,102051.0,52.0,-1067.0,-177.0,-18.25,46.0,-1.75,3.25,3.875,-0.125,121.625,4.5625,103.0,0.4365234375,-0.649658203125,0.54351806640625,-0.3033447265625,-26.0,-115.0,43.0,78.0,-952.0,-220.0,1063,1178.1785373104922,-276.7729422290884,
192,9.199999809265137,0.04499983787536621,22.222302284058216,20.869565650060192,102051.0,72.0,-1067.0,-218.0,-19.75,44.0625,-2.5625,6.625,-3.25,-2.375,122.1875,4.5625,102.5625,0.43170166015625,-0.6500244140625,0.54766845703125,-0.30206298828125,-5.0,-114.0,-5.0,78.0,-953.0,-213.0,1011,1144.7428298483937,-370.02203344408923,
193,9.246999979019165,0.04700016975402832,21.27651889840869,20.871634090829925,102051.0,48.0,-1000.0,-190.0,-19.375,44.5,-1.5,7.375,-3.8125,-1.4375,122.4375,4.5625,102.25,0.428955078125,-0.64959716796875,0.55035400390625,-0.302001953125,-25.0,-57.0,23.0,78.0,-955.0,-207.0,974,1110.594263878715,-441.3301485967562,
194,9.294000148773193,0.04700016975402832,21.27651889840869,20.87368161120677,102051.0,69.0,-1005.0,-238.0,-19.0625,45.1875,-3.0,11.375,-7.8125,-0.875,122.8125,4.5625,101.875,0.4261474609375,-0.64898681640625,0.553466796875,-0.301513671875,-9.0,-49.0,-36.0,78.0,-956.0,-201.0,917,1071.875411102972,-517.824599438965,
195,9.342999935150146,0.048999786376953125,20.40825223822499,20.871240645777256,102051.0,64.0,-931.0,-209.0,-17.875,45.1875,-1.75,5.1875,-9.4375,-1.75,122.8125,4.5,101.4375,0.42413330078125,-0.6474609375,0.5560302734375,-0.30291748046875,-13.0,26.0,-14.0,77.0,-958.0,-194.0,889,1035.3003288823777,-563.5463802695136,
196,9.388999938964844,0.046000003814697266,21.739128631995772,20.87549273342624,102051.0,81.0,-955.0,-249.0,-17.875,44.0625,-2.1875,-4.375,-10.25,-11.3125,123.0,4.75,101.625,0.42620849609375,-0.64727783203125,0.55548095703125,-0.30133056640625,0.0,1.0,-52.0,81.0,-957.0,-197.0,913,1010.8402631059022,-557.1852074679866,
197,9.438999891281128,0.04999995231628418,20.000019073504518,20.870855203841067,102049.75,83.0,-935.0,-218.0,-18.6875,43.25,-0.1875,-2.0625,-7.3125,-4.625,122.9375,4.9375,101.75,0.42938232421875,-0.64617919921875,0.554443359375,-0.3011474609375,-1.0,20.0,-18.0,85.0,-956.0,-199.0,881,984.8722104847218,-549.6204755194647,
198,9.486000061035156,0.04700016975402832,21.27651889840869,20.872865140841387,102049.75,83.0,-1008.0,-204.0,-19.375,43.0,-1.75,-7.9375,-4.3125,-4.8125,123.25,5.125,102.125,0.4307861328125,-0.6475830078125,0.55303955078125,-0.29864501953125,-4.0,-53.0,1.0,87.0,-954.0,-205.0,797,947.2977683877774,-599.5870458901318,
199,9.533999919891357,0.04799985885620117,20.833394593842822,20.87266642249643,102049.75,112.0,-968.0,-185.0,-19.375,44.0625,-1.5,-4.75,-2.3125,-8.375,123.8125,5.4375,102.4375,0.43182373046875,-0.648681640625,0.552978515625,-0.29486083984375,19.0,-15.0,24.0,93.0,-953.0,-210.0,787,915.238214710222,-613.2515031655048,
200,9.582000017166138,0.04800009727478027,20.833291113462177,20.872469175714915,102049.75,128.0,-963.0,-191.0,-19.375,44.0625,-1.5,-5.875,-3.0625,-3.5625,123.9375,5.625,102.6875,0.4342041015625,-0.648681640625,0.55181884765625,-0.29351806640625,31.0,-11.0,22.0,96.0,-952.0,-214.0,778,887.7905717681776,-604.966149690399,
201,9.632999897003174,0.05099987983703613,19.607889336119566,20.865774125309716,102049.75,113.0,-949.0,-171.0,-19.75,45.1875,-1.0,0.6875,-2.0,-2.5,124.375,5.6875,102.8125,0.433349609375,-0.650146484375,0.55206298828125,-0.2911376953125,15.0,2.0,45.0,97.0,-951.0,-216.0,721,854.4324574145422,-614.7893626938602,
202,9.679999828338623,0.04699993133544922,21.276626828723902,20.867768965102268,102049.75,127.0,-896.0,-137.0,-20.1875,44.5,-0.1875,-10.125,-3.25,-11.875,124.8125,6.0,103.0,0.43475341796875,-0.65057373046875,0.5518798828125,-0.28839111328125,24.0,53.0,82.0,102.0,-950.0,-220.0,712,825.9459659316339,-613.0507799433808,
203,9.726999998092651,0.04700016975402832,21.27651889840869,20.86974401560665,102049.75,129.0,-923.0,-175.0,-20.5625,43.25,0.1875,-8.5625,-5.1875,-3.5625,125.125,6.375,103.75,0.43963623046875,-0.65191650390625,0.54833984375,-0.28460693359375,20.0,22.0,56.0,108.0,-946.0,-232.0,656,791.9567727453071,-635.0749661888135,
204,9.776000022888184,0.04900002479553223,20.408152938142575,20.86743039304239,102049.75,80.0,-996.0,-161.0,-21.6875,44.0625,-0.1875,1.8125,-2.5,-2.0,124.9375,6.1875,103.75,0.438720703125,-0.65252685546875,0.5479736328125,-0.28533935546875,-26.0,-49.0,70.0,106.0,-946.0,-232.0,684,770.3654181962459,-596.1879061068315,
205,9.822999954223633,0.04699993133544922,21.276626828723902,20.869388267873845,102048.75,109.0,-944.0,-123.0,-20.5625,43.0,-1.0,-5.4375,-8.3125,-13.3125,125.6875,6.625,103.9375,0.43902587890625,-0.6529541015625,0.549072265625,-0.28143310546875,-4.0,0.0,111.0,113.0,-945.0,-234.0,,770.3654181962459,-596.1879061068315,
206,9.865999937057495,0.042999982833862305,23.25582323750381,20.87978930815186,102048.75,115.0,-1023.0,-162.0,-21.25,44.0625,1.375,5.1875,-8.625,-3.0625,125.3125,6.6875,104.0,0.44366455078125,-0.650634765625,0.54742431640625,-0.2830810546875,0.0,-78.0,73.0,115.0,-944.0,-236.0,660,748.2923345569967,-579.6158711696684,
207,9.91599988937378,0.04999995231628418,20.000019073504518,20.875353197797644,102048.75,105.0,-976.0,-77.0,-22.375,45.1875,-0.25,12.625,-12.0625,-10.9375,125.3125,6.9375,103.5,0.44427490234375,-0.6470947265625,0.55047607421875,-0.2843017578125,-13.0,-30.0,149.0,118.0,-946.0,-227.0,651,728.8338676455975,-541.5266388095629,
208,9.964999914169312,0.04900002479553223,20.408152938142575,20.873055874716382,102048.75,143.0,-958.0,-171.0,-21.6875,43.25,1.0,8.875,-23.3125,-9.4375,124.5625,7.1875,103.125,0.4501953125,-0.6405029296875,0.55078125,-0.28936767578125,21.0,-10.0,50.0,122.0,-947.0,-221.0,646,712.267094116478,-500.84076062241877,
209,10.014999866485596,0.04999995231628418,20.000019073504518,20.868697232778,102048.75,77.0,-930.0,-130.0,-21.25,43.0,0.1875,25.0625,-28.125,5.75,123.5,7.125,102.5,0.4532470703125,-0.63421630859375,0.55181884765625,-0.29638671875,-44.0,19.0,81.0,121.0,-949.0,-211.0,644,698.6136752931825,-455.2863358748262,
210,10.065999984741211,0.051000118255615234,19.607797671918096,20.862308793794316,102048.75,117.0,-949.0,-110.0,-22.0625,42.5625,0.1875,22.375,-24.9375,-4.6875,121.5625,6.625,101.3125,0.45404052734375,-0.625732421875,0.55364990234375,-0.30950927734375,4.0,5.0,81.0,113.0,-955.0,-191.0,630,684.8909402345461,-418.04359120687707,
211,10.111999988555908,0.046000003814697266,21.739128631995772,20.866297491969522,102048.75,120.0,-969.0,-91.0,-22.0625,41.875,-0.5625,29.1875,-43.1875,9.0625,119.75,6.375,100.3125,0.45770263671875,-0.61614990234375,0.55450439453125,-0.32147216796875,11.0,-10.0,83.0,109.0,-958.0,-174.0,634,674.7127521876369,-378.6878608039819,
212,10.162999868392944,0.05099987983703613,19.607889336119566,20.85998255882327,102048.75,88.0,-1039.0,-107.0,-21.25,42.5625,-0.25,36.25,-35.5,0.5,117.0625,5.625,98.8125,0.45892333984375,-0.60504150390625,0.554931640625,-0.339599609375,-7.0,-74.0,42.0,96.0,-964.0,-150.0,583,656.3702017501096,-374.8820284674308,
213,10.210999965667725,0.04800009727478027,20.833291113462177,20.859857087079263,102047.5,70.0,-1006.0,-101.0,-20.5625,43.25,-0.5625,25.625,-35.5,-2.25,115.6875,5.5,97.8125,0.4613037109375,-0.59576416015625,0.556640625,-0.34991455078125,-24.0,-39.0,31.0,94.0,-966.0,-132.0,620,649.0961614000877,-330.21406281056,
214,10.260999917984009,0.04999995231628418,20.000019073504518,20.85566725567666,102047.5,65.0,-1035.0,-139.0,-21.6875,43.6875,-1.0,22.625,-34.375,-1.75,114.0,5.625,96.875,0.46759033203125,-0.58404541015625,0.55657958984375,-0.3612060546875,4.0,36.0,-27.0,96.0,-968.0,-117.0,573,633.8769291200701,-325.0482374253373,
215,10.309999942779541,0.04900002479553223,20.408152938142575,20.853540367919415,102047.5,101.0,-869.0,-55.0,-21.25,43.0,-1.5,35.1875,-37.125,2.4375,127.75,5.4375,95.375,0.46923828125,-0.571533203125,0.5587158203125,-0.3753662109375,6.0,71.0,26.0,93.0,-971.0,-91.0,578,622.7015432960561,-305.6523865481156,
216,10.358000040054321,0.04800009727478027,20.833291113462177,20.853446530674777,102047.5,104.0,-972.0,-125.0,-20.5625,43.0,-2.5625,20.375,-29.625,5.5625,110.25,5.0,94.125,0.4700927734375,-0.5615234375,0.5587158203125,-0.3892822265625,18.0,1.0,-54.0,86.0,-974.0,-71.0,606,619.361234636845,-258.4398337797253,
217,10.407000064849854,0.04900002479553223,20.408152938142575,20.851349922916597,102047.5,72.0,-970.0,-91.0,-20.5625,42.25,-2.1875,21.875,-16.5,10.6875,109.1875,4.875,93.375,0.47052001953125,-0.55517578125,0.55914306640625,-0.397216796875,-10.0,4.0,-33.0,83.0,-975.0,-58.0,554,606.288987709476,-260.10794993156225,
218,10.453999996185303,0.04699993133544922,21.276626828723902,20.853261916926428,102047.5,88.0,-1017.0,-98.0,-20.875,42.5625,-1.75,10.125,-10.75,-3.0625,107.75,4.25,92.375,0.4678955078125,-0.549560546875,0.55926513671875,-0.40777587890625,14.0,-40.0,-57.0,73.0,-977.0,-41.0,578,600.6311901675808,-232.16212933952494,
219,10.503000020980835,0.04900002479553223,20.408152938142575,20.851185333954557,102047.5,77.0,-885.0,-33.0,-20.5625,43.1875,-2.5625,2.0,-15.4375,0.4375,107.625,4.625,92.4375,0.47216796875,-0.5465087890625,0.5582275390625,-0.4083251953125,-2.0,91.0,8.0,79.0,-976.0,-42.0,559,592.3049521340647,-219.71433130909526,
220,10.550999879837036,0.04799985885620117,20.833394593842822,20.851104398211593,102047.5,77.0,-926.0,-30.0,-19.75,42.5,-2.1875,2.375,-2.125,2.5,106.8125,4.3125,92.1875,0.471923828125,-0.54449462890625,0.55682373046875,-0.4132080078125,3.0,50.0,6.0,74.0,-977.0,-37.0,550,583.8439617072518,-211.02569549058035,
221,10.598999977111816,0.04800009727478027,20.833291113462177,20.85102372650647,102046.75,44.0,-957.0,42.0,-20.5625,42.875,-2.5625,6.0625,-2.6875,-13.4375,107.0625,4.5625,92.0,0.47265625,-0.5423583984375,0.55859375,-0.41278076171875,-34.0,19.0,76.0,78.0,-976.0,-34.0,587,584.4751693658014,-166.19052981174187,
222,10.640999794006348,0.04199981689453125,23.80962761126249,20.862701277848327,102046.75,122.0,-896.0,-14.0,-20.5625,42.875,-2.5625,-15.0625,5.4375,-17.0625,107.625,5.0625,92.25,0.47576904296875,-0.54150390625,0.55950927734375,-0.4091796875,34.0,79.0,23.0,89.0,-975.0,-41.0,569,581.3801354926411,-147.6907446422317,
223,10.686000108718872,0.045000314712524414,22.222066809716814,20.868425765600627,102046.75,156.0,-973.0,-97.0,-19.75,43.1875,-3.0,2.875,17.0,3.25,108.3125,5.1875,92.5,0.47479248046875,-0.544677734375,0.56048583984375,-0.4046630859375,55.0,-29.0,-11.0,89.0,-975.0,-43.0,569,578.9041083941129,-129.15708363501804,
224,10.735999822616577,0.04999971389770508,20.00011444157281,20.86438186484682,102046.75,89.0,-919.0,8.0,-20.1875,42.875,-0.5,-6.125,29.5,3.3125,109.0625,5.0,92.375,0.46844482421875,-0.54888916015625,0.56396484375,-0.4014892578125,9.0,57.0,24.0,86.0,-975.0,-41.0,587,580.5232867152903,-96.8489165630421,
225,10.783999919891357,0.04800009727478027,20.833291113462177,20.864243478431586,102046.75,213.0,-964.0,-8.0,-20.25,43.5625,-2.875,-9.8125,22.75,8.875,110.625,5.0625,92.75,0.462646484375,-0.55670166015625,0.56756591796875,-0.39239501953125,127.0,11.0,38.0,86.0,-975.0,-46.0,675,599.4186293722323,1.251301601704995,
226,10.832000017166138,0.04800009727478027,20.833291113462177,20.864106318486325,102046.75,276.0,-952.0,47.0,-19.875,43.1875,-2.5,7.0625,22.4375,11.9375,110.875,4.25,92.6875,0.4537353515625,-0.5635986328125,0.56854248046875,-0.39141845703125,203.0,24.0,93.0,73.0,-976.0,-46.0,620,603.5349034977859,18.15214871345785,
227,10.88099980354309,0.048999786376953125,20.40825223822499,20.862053496782885,102046.75,255.0,-968.0,243.0,-20.25,44.0,-3.25,17.6875,35.25,-9.3125,112.75,4.5625,91.75,0.444091796875,-0.56402587890625,0.57977294921875,-0.38531494140625,177.0,8.0,273.0,78.0,-977.0,-30.0,564,595.6279227982287,-17.751812341101534,
228,10.927000045776367,0.04600024223327637,21.739015958411727,20.865745313886883,102046.75,215.0,-993.0,205.0,-19.5,42.875,-3.6875,28.0625,31.125,-15.75,115.125,5.25,90.625,0.43475341796875,-0.56256103515625,0.59356689453125,-0.3770751953125,125.0,-17.0,215.0,90.0,-976.0,-10.0,545,585.502338238583,-58.22549873895847,
229,10.97599983215332,0.048999786376953125,20.40825223822499,20.86370294295766,102044.5,189.0,-989.0,296.0,-18.75,41.75,-5.25,36.75,38.125,-24.0,117.625,6.125,88.6875,0.42425537109375,-0.555908203125,0.6116943359375,-0.36993408203125,39.0,-47.0,269.0,105.0,-974.0,21.0,550,578.4018705908663,-75.56202594395823,
230,11.023000001907349,0.04700016975402832,21.27651889840869,20.865463118951492,102044.5,31.0,-960.0,240.0,-19.875,42.1875,-5.6875,46.75,22.4375,-17.125,119.4375,6.875,87.0625,0.41680908203125,-0.54876708984375,0.62579345703125,-0.36541748046875,-87.0,11.0,190.0,118.0,-972.0,49.0,550,572.7214964726932,-84.62133821023522,
231,11.067999839782715,0.04499983787536621,22.222302284058216,20.87097970219477,102044.5,21.0,-975.0,276.0,-21.0,41.75,-8.0625,54.25,12.125,-11.25,120.625,7.5625,84.4375,0.40753173828125,-0.53497314453125,0.64312744140625,-0.3662109375,-108.0,-7.0,182.0,129.0,-967.0,93.0,503,558.7771971781546,-129.67195738071155,
232,11.115999937057495,0.04800009727478027,20.833291113462177,20.870816958767676,102044.5,-12.0,-936.0,198.0,-21.75,42.5,-8.875,50.5625,10.25,-4.5,120.75,7.625,81.9375,0.39813232421875,-0.52178955078125,0.656005859375,-0.37261962890625,-127.0,28.0,25.0,130.0,-962.0,135.0,498,546.6217577425236,-154.38512757948067,
233,11.166000127792358,0.05000019073486328,19.999923706345726,20.86691718908897,102044.5,-29.0,-930.0,240.0,-21.6875,39.875,-12.5,56.875,8.125,-13.0,121.4375,8.125,79.1875,0.38916015625,-0.505859375,0.6715087890625,-0.37646484375,-175.0,25.0,72.0,139.0,-953.0,181.0,517,540.697406194019,-147.2054178595174,
234,11.216999769210815,0.05099964141845703,19.607981001178075,20.861193261526058,102044.5,-53.0,-923.0,150.0,-21.6875,40.25,-14.875,38.0625,-14.0625,20.6875,120.4375,7.625,77.25,0.381591796875,-0.49530029296875,0.67742919921875,-0.38751220703125,-121.0,84.0,-108.0,130.0,-948.0,213.0,498,532.1579249552152,-151.25273146569015,
235,11.26200008392334,0.045000314712524414,22.222066809716814,20.8666309935005,102044.5,21.0,-964.0,317.0,-21.75,38.0,-14.875,41.75,-0.8125,-6.5,119.8125,7.5625,75.3125,0.3765869140625,-0.48272705078125,0.68408203125,-0.39642333984375,-119.0,-74.0,93.0,129.0,-940.0,245.0,489,523.5263399641722,-159.36451684149358,
236,11.309999942779541,0.04799985885620117,20.833394593842822,20.866489937576493,102044.5,81.0,-1061.0,93.0,-20.6875,38.375,-16.875,15.0,-3.0625,14.125,119.25,7.1875,74.8125,0.3731689453125,-0.4805908203125,0.6846923828125,-0.401123046875,-41.0,-122.0,-160.0,122.0,-939.0,254.0,479,514.6210719713378,-164.59700588492245,
237,11.358999967575073,0.04900002479553223,20.408152938142575,20.864512780749212,102045.5,3.0,-829.0,322.0,-21.375,38.375,-17.25,38.0625,-6.25,0.375,118.25,6.6875,73.6875,0.36798095703125,-0.471923828125,0.6878662109375,-0.41070556640625,-112.0,103.0,44.0,116.0,-933.0,278.0,437,499.0968575770702,-195.04171302848337,
238,11.407000064849854,0.04800009727478027,20.833291113462177,20.86438140150328,102045.5,62.0,-1032.0,335.0,-20.6875,37.6875,-17.6875,-22.0625,13.8125,-4.4375,119.0625,7.0,73.625,0.36810302734375,-0.4742431640625,0.6893310546875,-0.405517578125,-58.0,-114.0,-87.0,120.0,-933.0,273.0,475,494.2774860616562,-176.11404437569612,
239,11.453999996185303,0.04699993133544922,21.276626828723902,20.866072994551924,102045.5,-15.0,-1024.0,62.0,-21.0,37.1875,-18.5,-19.0,6.25,6.0625,119.0,6.5,74.6875,0.36785888671875,-0.48345947265625,0.68463134765625,-0.40277099609375,-127.0,-84.0,-194.0,112.0,-939.0,256.0,456,486.62198884932496,-173.46786697557843,
240,11.503000020980835,0.04900002479553223,20.408152938142575,20.864122364796426,102045.5,123.0,-1072.0,256.0,-19.875,38.75,-15.75,-6.375,5.3125,-4.5625,119.3125,6.875,74.9375,0.37042236328125,-0.483642578125,0.6844482421875,-0.40045166015625,6.0,-132.0,3.0,117.0,-940.0,252.0,433,475.89759107946,-182.5473235518385,
241,11.550999879837036,0.04799985885620117,20.833394593842822,20.86399467639853,102045.5,-8.0,-1042.0,137.0,-19.375,37.875,-16.0625,-7.4375,4.625,20.125,118.9375,6.1875,75.5,0.36810302734375,-0.49005126953125,0.6807861328125,-0.401123046875,-114.0,-98.0,-106.0,105.0,-943.0,243.0,451,470.91807286356806,-166.78591241725195,
242,11.598999977111816,0.04800009727478027,20.833291113462177,20.86386761596138,102045.5,-13.0,-966.0,304.0,-19.75,37.1875,-15.75,-2.9375,1.1875,15.125,118.0,5.25,75.5,0.36431884765625,-0.49273681640625,0.67742919921875,-0.40692138671875,-104.0,-21.0,60.0,90.0,-945.0,244.0,451,466.9344582908545,-150.027090349236,
243,11.643999814987183,0.04499983787536621,22.222302284058216,20.869117473467384,102045.5,3.0,-913.0,222.0,-17.875,37.875,-16.0625,-11.5,-3.3125,20.0625,117.25,4.625,75.875,0.36309814453125,-0.49700927734375,0.6729736328125,-0.41009521484375,-75.0,34.0,-14.0,79.0,-948.0,237.0,428,459.1475666326836,-154.6302043356057,
244,11.691999912261963,0.04800009727478027,20.833291113462177,20.86897039266186,102045.5,69.0,-985.0,324.0,-17.875,37.875,-15.0,-13.3125,-3.5,5.3125,116.25,4.0625,76.5,0.3643798828125,-0.5008544921875,0.6668701171875,-0.41424560546875,0.0,-34.0,96.0,69.0,-951.0,228.0,508,468.91805330614693,-82.99388483079174,
245,11.73799991607666,0.046000003814697266,21.739128631995772,20.87238045252001,102045.75,151.0,-1123.0,233.0,-17.875,38.6875,-13.25,-14.75,-0.5625,6.75,115.75,3.875,77.25,0.3681640625,-0.50457763671875,0.661376953125,-0.41522216796875,85.0,-169.0,18.0,66.0,-954.0,215.0,418,458.7344426449176,-110.67167228515908,
246,11.78600001335144,0.04800009727478027,20.833291113462177,20.872221255839623,102045.75,142.0,-1098.0,239.0,-19.0625,38.25,-15.0,3.4375,-1.25,18.875,114.9375,3.1875,77.5,0.3663330078125,-0.5078125,0.657470703125,-0.4190673828125,87.0,-142.0,27.0,54.0,-955.0,211.0,376,442.18755411593406,-157.48256697739157,
247,11.836999893188477,0.05099987983703613,19.607889336119566,20.866773864054398,102045.75,134.0,-1012.0,275.0,-16.5,38.25,-15.0,9.0,-2.75,17.875,114.125,2.5,77.1875,0.36236572265625,-0.5079345703125,0.65594482421875,-0.4248046875,103.0,-59.0,63.0,42.0,-955.0,217.0,362,426.1500432927472,-188.87840107148673,
248,11.881999969482422,0.04500007629394531,22.222184546263723,20.871907139956242,102045.75,95.0,-947.0,205.0,-16.5,39.0625,-13.75,14.8125,-1.875,9.875,113.5,1.9375,76.6875,0.3582763671875,-0.5067138671875,0.65576171875,-0.429931640625,62.0,6.0,-19.0,33.0,-953.0,225.0,311,403.1200346341978,-253.4581413596568,
249,11.926000118255615,0.04400014877319336,22.72719588187483,20.878752098857145,102045.75,159.0,-862.0,312.0,-16.875,39.0625,-15.0,18.9375,-3.375,5.625,112.9375,1.625,75.6875,0.35430908203125,-0.50115966796875,0.658203125,-0.43597412109375,130.0,87.0,70.0,28.0,-949.0,241.0,315,385.4960277073583,-282.8753646176856,
250,11.971999883651733,0.045999765396118164,21.739241306747797,20.882058338589317,102045.75,82.0,-818.0,264.0,-15.0,37.875,-15.25,9.0,-1.75,0.0625,112.75,1.5625,75.1875,0.35223388671875,-0.4986572265625,0.65966796875,-0.4383544921875,55.0,129.0,15.0,27.0,-947.0,249.0,306,369.59682216588664,-295.42762486447526,
251,12.019000053405762,0.04700016975402832,21.27651889840869,20.883600872343404,102045.75,128.0,-867.0,241.0,-16.875,39.0625,-15.25,0.0,-3.0,-13.3125,112.875,2.0,75.0625,0.3551025390625,-0.495361328125,0.6607666015625,-0.43804931640625,93.0,79.0,-10.0,34.0,-947.0,252.0,329,361.47745773270935,-270.89246205269296,
252,12.07699990272522,0.05799984931945801,17.241424102536698,20.86610930112993,102045.75,158.0,-1031.0,238.0,-15.75,39.75,-16.0625,-8.375,9.1875,-8.25,113.8125,2.6875,75.3125,0.35833740234375,-0.49542236328125,0.6629638671875,-0.4320068359375,111.0,-83.0,-9.0,46.0,-947.0,247.0,311,351.38196618616746,-251.52609989765497,
253,12.123999834060669,0.04699993133544922,21.276626828723902,20.867700714514378,102045.25,35.0,-1045.0,248.0,-16.875,38.6875,-14.5,8.3125,8.375,-4.3125,113.875,2.6875,75.3125,0.35809326171875,-0.495361328125,0.6634521484375,-0.43157958984375,-11.0,-98.0,0.0,46.0,-947.0,247.0,343,349.705572948934,-208.35447858348658,
254,12.174000024795532,0.05000019073486328,19.999923706345726,20.8641366422427,102045.25,31.0,-1005.0,246.0,-16.875,39.0625,-16.0625,7.0,1.1875,-4.125,114.25,2.875,74.9375,0.35638427734375,-0.4932861328125,0.66650390625,-0.4305419921875,-18.0,-59.0,-7.0,49.0,-945.0,254.0,343,348.36445835914725,-172.04802076222967,
255,12.222000122070312,0.04800009727478027,20.833291113462177,20.864015500991908,102045.25,0.0,-1036.0,285.0,-16.5,38.6875,-16.5,11.5,-2.625,-12.3125,114.625,3.1875,74.5625,0.35650634765625,-0.489990234375,0.669677734375,-0.42938232421875,-55.0,-93.0,24.0,55.0,-943.0,260.0,329,344.4915666873178,-153.77543253980897,
256,12.268999814987183,0.04699969291687012,21.276734760134126,20.865596532757586,102045.25,51.0,-919.0,238.0,-16.875,38.6875,-15.25,24.375,-14.375,-16.25,114.6875,4.0,73.6875,0.35968017578125,-0.48065185546875,0.673583984375,-0.43115234375,-16.0,20.0,-35.0,68.0,-939.0,273.0,339,343.39325334985426,-127.69405034479306,
257,12.316999912261963,0.04800009727478027,20.833291113462177,20.865470636575093,102045.25,140.0,-821.0,313.0,-17.875,38.6875,-16.5,15.8125,-9.125,-16.625,115.0,5.0,72.625,0.36322021484375,-0.46875,0.67919921875,-0.4324951171875,54.0,110.0,22.0,86.0,-932.0,290.0,311,336.9146026798834,-129.14956336182044,
258,12.364999771118164,0.04799985885620117,20.833394593842822,20.865346120153557,102045.25,67.0,-825.0,297.0,-19.75,37.875,-17.0,4.0625,-2.9375,-7.5625,115.0625,5.4375,72.25,0.3651123046875,-0.46417236328125,0.680908203125,-0.4332275390625,-21.0,106.0,5.0,93.0,-930.0,296.0,278,325.13168214390674,-152.41529728823542,
259,12.412999868392944,0.04800009727478027,20.833291113462177,20.86522216595589,102045.25,95.0,-895.0,343.0,-18.6875,37.5625,-18.0625,5.25,-5.0,-7.875,115.3125,6.0,72.0625,0.36761474609375,-0.46014404296875,0.6829833984375,-0.4320068359375,-6.0,32.0,43.0,102.0,-928.0,299.0,287,317.5053457151254,-153.70857522058913,
260,12.463000059127808,0.05000019073486328,19.999923706345726,20.861750683341924,102045.25,53.0,-912.0,287.0,-19.0625,36.75,-17.25,-2.625,-2.5,-3.1875,115.375,6.1875,72.0,0.369140625,-0.458984375,0.6832275390625,-0.431640625,-52.0,14.0,-12.0,106.0,-927.0,300.0,278,309.60427657210033,-154.57101618828395,
261,12.507999897003174,0.04499983787536621,22.222302284058216,20.866645518803825,102047.25,80.0,-903.0,304.0,-19.375,36.0625,-18.0625,8.25,-5.0,-3.875,115.5,6.4375,71.875,0.370361328125,-0.45660400390625,0.68426513671875,-0.431396484375,-30.0,22.0,1.0,110.0,-926.0,302.0,268,301.2834212576803,-160.63852536241808,
262,12.555999994277954,0.04800009727478027,20.833291113462177,20.866518008872188,102047.25,78.0,-912.0,337.0,-20.1875,36.375,-18.5,0.5,-1.5625,-0.125,115.4375,6.5625,71.6875,0.37066650390625,-0.45477294921875,0.68475341796875,-0.43231201171875,-36.0,27.0,-15.0,112.0,-925.0,305.0,292,299.4267370061442,-136.2469889935408,
263,12.603999853134155,0.04799985885620117,20.833394593842822,20.866391864849277,102047.25,78.0,-902.0,281.0,-20.1875,36.75,-17.0,3.0625,-4.375,2.1875,115.125,6.5,71.625,0.37164306640625,-0.45367431640625,0.68377685546875,-0.43426513671875,-29.0,14.0,-17.0,112.0,-924.0,306.0,297,298.94138960491534,-111.01987797981207,
264,12.651999950408936,0.04800009727478027,20.833291113462177,20.86626628475975,102047.25,107.0,-889.0,331.0,-18.6875,35.25,-18.0625,4.625,-5.4375,0.9375,114.875,6.5,71.4375,0.37139892578125,-0.45184326171875,0.6837158203125,-0.43634033203125,-3.0,34.0,22.0,111.0,-923.0,309.0,297,298.5531116839323,-90.43372377600365,
265,12.698999881744385,0.04699993133544922,21.276626828723902,20.867785059274965,102047.25,95.0,-892.0,317.0,-20.1875,36.75,-17.25,-2.9375,-4.9375,3.4375,114.4375,6.375,71.5,0.37255859375,-0.45123291015625,0.681884765625,-0.43890380859375,-14.0,31.0,7.0,109.0,-924.0,309.0,306,300.0424893471458,-66.0091924713567,
266,12.746000051498413,0.04700016975402832,21.27651889840869,20.869292242685123,102047.25,140.0,-908.0,332.0,-20.1875,37.875,-16.5,1.625,-5.75,-3.625,114.125,6.625,71.5625,0.37591552734375,-0.44915771484375,0.68023681640625,-0.440673828125,27.0,15.0,24.0,113.0,-924.0,307.0,320,304.03399147771665,-35.82229987425957,
267,12.79699993133545,0.05099987983703613,19.607889336119566,20.864265174074813,102047.25,160.0,-928.0,344.0,-19.75,36.0625,-17.0,-6.25,1.8125,0.1875,114.0,6.6875,71.6875,0.37750244140625,-0.44915771484375,0.67926025390625,-0.44091796875,45.0,-3.0,39.0,114.0,-924.0,305.0,315,306.2271931821733,-20.05702863685262,
268,12.84499979019165,0.04799985885620117,20.833394593842822,20.864149815295665,102044.5,82.0,-945.0,322.0,-20.5625,36.375,-16.0625,-2.1875,-0.125,5.875,113.625,6.4375,71.9375,0.37799072265625,-0.45074462890625,0.6768798828125,-0.4425048828125,-27.0,-19.0,20.0,110.0,-926.0,301.0,287,302.38175454573866,-32.06833100933255,
269,12.894999980926514,0.05000019073486328,19.999923706345726,20.860798790064997,102044.5,111.0,-967.0,276.0,-20.1875,35.6875,-15.25,-3.875,-1.875,-1.9375,113.25,6.375,72.125,0.37982177734375,-0.45098876953125,0.6746826171875,-0.4439697265625,1.0,-40.0,-22.0,109.0,-927.0,298.0,297,301.30540363659094,-29.960052020308098,
270,12.944000005722046,0.04900002479553223,20.408152938142575,20.859085281261073,102044.5,161.0,-917.0,321.0,-19.375,36.375,-16.5,2.75,-0.5,10.9375,113.0625,6.25,72.0625,0.3792724609375,-0.45074462890625,0.67413330078125,-0.44561767578125,53.0,9.0,21.0,107.0,-927.0,300.0,278,296.6443229092728,-42.99285128427407,
271,12.99399995803833,0.04999995231628418,20.000019073504518,20.85577965793007,102044.5,52.0,-930.0,245.0,-20.1875,36.75,-16.0625,-6.375,2.3125,7.3125,112.4375,5.6875,72.25,0.37762451171875,-0.45361328125,0.67095947265625,-0.4488525390625,-45.0,-1.0,-52.0,97.0,-929.0,297.0,292,295.7154583274182,-38.109742898178034,
272,13.039999961853027,0.046000003814697266,21.739128631995772,20.858895766541696,102044.5,132.0,-979.0,327.0,-20.1875,36.375,-16.0625,-1.0,6.5,11.5,112.125,5.4375,72.1875,0.37664794921875,-0.45428466796875,0.6708984375,-0.4490966796875,41.0,-45.0,26.0,95.0,-929.0,297.0,301,296.7723666619346,-25.89254107128643,
273,13.089999914169312,0.04999995231628418,20.000019073504518,20.8556151100116,102044.5,64.0,-987.0,363.0,-19.0625,37.875,-16.0625,-8.125,12.125,23.125,111.1875,4.25,72.5,0.3712158203125,-0.461181640625,0.6651611328125,-0.45501708984375,-7.0,-54.0,70.0,72.0,-932.0,293.0,325,302.4178933295477,1.8680953494190398,
274,13.140999794006348,0.05099987983703613,19.607889336119566,20.85077271860032,102044.5,109.0,-1040.0,342.0,-18.25,37.875,-16.0625,-7.5625,9.5625,15.5625,110.625,3.25,72.875,0.36669921875,-0.46783447265625,0.66143798828125,-0.45733642578125,53.0,-104.0,54.0,56.0,-935.0,287.0,292,300.3343146636382,-6.676439701315389,
275,13.187999963760376,0.04700016975402832,21.27651889840869,20.85229001787073,102044.5,53.0,-999.0,275.0,-18.25,37.875,-16.0625,1.6875,8.125,24.25,110.1875,2.4375,73.0,0.36199951171875,-0.47259521484375,0.65911865234375,-0.45953369140625,11.0,-62.0,-9.0,42.0,-937.0,285.0,297,299.66745173091056,-8.178856119218004,
276,13.232999801635742,0.04499983787536621,22.222302284058216,20.85694885039471,102045.25,-68.0,-836.0,313.0,-16.875,39.75,-16.5,10.3125,-19.3125,8.25,108.8125,1.5,72.6875,0.35858154296875,-0.47198486328125,0.6549072265625,-0.46875,-95.0,99.0,21.0,26.0,-935.0,291.0,320,303.73396138472845,11.530356458262009,
277,13.282000064849854,0.04900026321411133,20.40805363902648,20.855292775751945,102045.25,167.0,-865.0,348.0,-16.0625,39.375,-17.375,3.3125,-20.875,-19.625,108.875,2.6875,72.375,0.36669921875,-0.46295166015625,0.656494140625,-0.46923828125,121.0,67.0,51.0,46.0,-933.0,296.0,236,290.1871691077828,-46.06844751832176,
278,13.327999830245972,0.045999765396118164,21.739241306747797,20.85834360300029,102045.25,45.0,-768.0,372.0,-16.1875,38.6875,-16.5625,6.8125,-20.25,5.875,108.3125,3.0,72.1875,0.37139892578125,-0.45721435546875,0.6544189453125,-0.47406005859375,-43.0,182.0,102.0,51.0,-932.0,300.0,250,282.14973528622625,-71.80030068142413,
279,13.375,0.04700016975402832,21.27651889840869,20.85981308411215,102045.25,72.0,-823.0,514.0,-17.6875,37.5625,-17.0625,-1.625,-12.6875,-6.75,107.875,3.1875,72.0625,0.375,-0.454345703125,0.65350341796875,-0.47528076171875,15.0,70.0,197.0,57.0,-931.0,299.0,,282.14973528622625,-71.80030068142413,
280,13.416999816894531,0.04199981689453125,23.80962761126249,20.86904701656381,102045.25,14.0,-999.0,302.0,-18.0,37.5625,-16.5625,-17.4375,2.1875,-3.6875,108.3125,3.625,72.8125,0.379638671875,-0.4578857421875,0.65185546875,-0.47039794921875,-78.0,-72.0,-5.0,62.0,-935.0,286.0,264,278.519788228981,-74.72577808146087,
281,13.464999914169312,0.04800009727478027,20.833291113462177,20.868919553746284,102045.25,-60.0,-946.0,341.0,-18.25,37.5625,-15.0625,8.5625,-15.0,-0.75,107.8125,3.75,72.8125,0.38214111328125,-0.455078125,0.650146484375,-0.47357177734375,-168.0,49.0,46.0,66.0,-934.0,289.0,325,287.81583058318483,-21.04719115152809,
282,13.512999773025513,0.04799985885620117,20.833394593842822,20.868793364662448,102045.25,-37.0,-867.0,372.0,-18.375,37.5625,-16.1875,-3.9375,-46.6875,-33.1875,107.375,4.9375,72.8125,0.39361572265625,-0.4451904296875,0.64825439453125,-0.47607421875,-122.0,169.0,35.0,77.0,-933.0,289.0,311,292.4526644665479,2.4824450704181977,
283,13.560999870300293,0.04800009727478027,20.833291113462177,20.86866770198806,102045.25,6.0,-740.0,224.0,-19.0625,39.0625,-16.1875,-2.9375,-61.625,-84.375,109.0,8.875,73.375,0.4219970703125,-0.42547607421875,0.65191650390625,-0.46466064453125,-145.0,187.0,-52.0,135.0,-930.0,278.0,301,294.16213157323836,9.108721232848584,
284,13.611000061035156,0.05000019073486328,19.999923706345726,20.865476359302946,102045.5,-28.0,-683.0,-155.0,-21.25,37.1875,-13.375,-96.625,53.75,79.8125,107.5,7.9375,77.3125,0.4376220703125,-0.44732666015625,0.62921142578125,-0.46087646484375,-164.0,263.0,-367.0,135.0,-942.0,226.0,297,294.7297052585907,9.557263067234079,
285,13.65499997138977,0.04399991035461426,22.72731903180185,20.87147569367541,102045.5,-287.0,-1120.0,242.0,-22.1875,37.5625,-12.1875,7.375,32.8125,23.5,107.375,6.25,78.6875,0.4302978515625,-0.46673583984375,0.62274169921875,-0.45745849609375,-394.0,-164.0,52.0,106.0,-956.0,190.0,,294.7297052585907,9.557263067234079,
286,13.702000141143799,0.04700016975402832,21.27651889840869,20.872865060131698,102045.5,132.0,-860.0,190.0,-20.5625,38.25,-10.6875,-66.5,23.25,6.5625,107.75,5.6875,79.75,0.428466796875,-0.47772216796875,0.61968994140625,-0.451904296875,34.0,99.0,17.0,97.0,-960.0,173.0,348,305.38376420687257,52.98206776536321,
287,13.746000051498413,0.04399991035461426,22.72731903180185,20.87880102755528,102045.5,186.0,-1145.0,79.0,-20.6875,38.6875,-10.25,-8.0625,22.125,47.4375,107.3125,4.3125,81.0,0.42388916015625,-0.49237060546875,0.6124267578125,-0.4503173828125,112.0,-180.0,-73.0,74.0,-965.0,152.0,362,316.70701136549803,93.85506434229552,
288,13.795000076293945,0.04900002479553223,20.408152938142575,20.87712927924621,102045.5,39.0,-862.0,291.0,-18.6875,39.75,-10.5625,29.5625,21.0625,46.25,105.875,1.6875,79.625,0.401123046875,-0.49920654296875,0.61309814453125,-0.462646484375,10.0,102.0,115.0,29.0,-964.0,176.0,353,323.96560909239844,104.71096597924392,
289,13.842999935150146,0.04799985885620117,20.833394593842822,20.876977631573283,102045.5,559.0,-658.0,-3.0,-16.875,40.875,-9.375,52.25,-32.375,85.5,102.1875,-0.4375,78.0,0.39117431640625,-0.493408203125,0.60455322265625,-0.4879150390625,568.0,301.0,-206.0,-8.0,-959.0,203.0,433,345.7724872739188,174.63103238649015,
290,13.891000032424927,0.04800009727478027,20.833291113462177,20.876826673606683,102045.5,-238.0,-1278.0,231.0,-13.875,40.875,-11.875,-49.125,-42.25,-23.0,99.1875,-0.8125,77.25,0.397216796875,-0.4820556640625,0.5948486328125,-0.5059814453125,-223.0,-322.0,16.0,-14.0,-956.0,215.0,517,380.0179898191351,282.3941306794524,
291,13.935999870300293,0.04499983787536621,22.222302284058216,20.88117126207533,102045.5,-87.0,-962.0,263.0,-13.875,40.875,-11.875,-41.5,2.625,30.4375,98.0625,-1.5,78.875,0.4034423828125,-0.49114990234375,0.58294677734375,-0.50616455078125,-183.0,30.0,75.0,-26.0,-962.0,188.0,592,422.41439185530805,414.3444369044213,
292,13.983000040054321,0.04700016975402832,21.27651889840869,20.88250011897058,102046.0,-297.0,-888.0,275.0,-15.0625,40.6875,-11.0625,-14.9375,33.125,35.875,96.8125,-3.8125,80.3125,0.3946533203125,-0.5106201171875,0.57135009765625,-0.50701904296875,-232.0,76.0,112.0,-65.0,-964.0,163.0,522,442.33151348424644,416.22895247153946,
293,14.031999826431274,0.048999786376953125,20.40825223822499,20.880844043918295,102046.0,98.0,-898.0,31.0,-14.25,41.75,-10.6875,-35.25,53.625,14.1875,97.25,-5.8125,81.4375,0.3790283203125,-0.53179931640625,0.56842041015625,-0.50042724609375,197.0,66.0,-112.0,-99.0,-964.0,144.0,606,475.0652107873972,466.5906722277126,
294,14.07699990272522,0.04500007629394531,22.222184546263723,20.885131919556482,102046.0,-29.0,-1016.0,75.0,-12.0,42.0625,-10.25,-17.5625,12.375,-22.1875,99.1875,-4.9375,83.0,0.38250732421875,-0.5401611328125,0.56964111328125,-0.48504638671875,98.0,-33.0,-82.0,-88.0,-969.0,121.0,625,505.0521686299178,506.5476800136747,
295,14.124999761581421,0.04799985885620117,20.833394593842822,20.88495610473356,102046.0,-7.0,-928.0,122.0,-11.25,41.75,-9.0,-0.625,-2.8125,1.125,99.5,-4.6875,83.25,0.38568115234375,-0.5411376953125,0.57037353515625,-0.4827880859375,73.0,42.0,7.0,-80.0,-970.0,114.0,667,537.4417349039343,540.1950669929415,
296,14.172999858856201,0.04800009727478027,20.833291113462177,20.88478112945441,102046.0,-119.0,-956.0,157.0,-11.5625,43.5625,-9.375,-1.6875,-6.25,-4.4375,99.375,-4.5,83.25,0.38800048828125,-0.53936767578125,0.5699462890625,-0.4833984375,-41.0,14.0,42.0,-77.0,-970.0,114.0,653,560.5533879231474,528.454412686872,
297,14.218999862670898,0.046000003814697266,21.739128631995772,20.887545036111387,102046.0,-57.0,-1011.0,137.0,-11.5625,41.6875,-8.25,-6.0,1.5,-0.3125,99.5,-4.3125,83.5625,0.39031982421875,-0.540283203125,0.569091796875,-0.48150634765625,16.0,-40.0,28.0,-74.0,-971.0,109.0,653,579.042710338518,503.1518818107344,
298,14.263000011444092,0.04400014877319336,22.72719588187483,20.893220203386107,102046.0,-109.0,-977.0,162.0,-10.875,41.75,-8.25,0.5625,1.875,-2.9375,99.5625,-4.3125,83.5625,0.39019775390625,-0.5406494140625,0.5692138671875,-0.4810791015625,-35.0,-5.0,54.0,-74.0,-971.0,108.0,644,592.0341682708145,461.57338729227536,
299,14.310999870300293,0.04799985885620117,20.833394593842822,20.893019545092482,102046.0,-36.0,-1017.0,126.0,-12.0,42.1875,-10.1875,2.375,5.1875,8.8125,99.8125,-4.5625,83.5625,0.38665771484375,-0.54290771484375,0.5704345703125,-0.47998046875,41.0,-45.0,17.0,-78.0,-971.0,109.0,717,617.0273346166516,473.397209160296,
300,14.354000091552734,0.043000221252441406,23.255694293508395,20.900097400483414,102046.0,-90.0,-1007.0,150.0,-12.375,41.75,-10.1875,4.5,2.4375,4.3125,100.0,-4.75,83.4375,0.3836669921875,-0.5440673828125,0.57171630859375,-0.47955322265625,-16.0,-8.0,43.0,-82.0,-970.0,111.0,750,643.6218676933213,502.41263355016224,
301,14.402999877929688,0.048999786376953125,20.40825223822499,20.898424116578294,102046.75,-55.0,-982.0,136.0,-11.25,42.375,-9.0,0.5,5.25,-1.4375,100.0625,-4.875,83.3125,0.3814697265625,-0.544677734375,0.572509765625,-0.4796142578125,28.0,-11.0,22.0,-84.0,-970.0,113.0,592,633.297494154657,359.7896229643865,
302,14.45199990272522,0.04900002479553223,20.408152938142575,20.896761834536942,102046.75,-86.0,-960.0,161.0,-11.5625,40.875,-9.0,2.125,-0.5,1.4375,100.1875,-4.875,83.25,0.380859375,-0.5445556640625,0.5733642578125,-0.479248046875,-2.0,9.0,46.0,-83.0,-970.0,114.0,245,555.6379953237256,-29.145687476721264,
303,14.5,0.04800009727478027,20.833291113462177,20.896551724137932,102046.75,-35.0,-963.0,132.0,-11.5625,41.25,-11.0,0.1875,-0.625,-3.1875,100.5625,-4.8125,83.1875,0.37908935546875,-0.545166015625,0.57513427734375,-0.477783203125,47.0,6.0,16.0,-83.0,-970.0,115.0,254,495.3103962589805,-274.6810366797896,
304,14.550999879837036,0.05099987983703613,19.607889336119566,20.8920350842175,102046.75,-119.0,-938.0,171.0,-11.25,41.6875,-8.5625,-2.375,-4.3125,-5.75,100.625,-4.5625,83.3125,0.3817138671875,-0.5443115234375,0.574951171875,-0.4769287109375,-40.0,32.0,57.0,-78.0,-970.0,113.0,554,507.04831700718444,-173.71365913044684,
305,14.598000049591064,0.04700016975402832,21.27651889840869,20.89327298012607,102046.75,-76.0,-994.0,152.0,-12.0,41.6875,-9.375,-1.9375,-2.0,0.0625,100.6875,-4.375,83.375,0.383544921875,-0.5438232421875,0.57476806640625,-0.4761962890625,0.0,-22.0,40.0,-75.0,-971.0,112.0,834,572.4386536057475,139.28481917816902,
306,14.646000146865845,0.04800009727478027,20.833291113462177,20.893076398437845,102046.75,-65.0,-965.0,151.0,-12.0,41.6875,-8.5625,0.9375,-1.5,0.25,100.5,-4.5,83.3125,0.38330078125,-0.54345703125,0.57440185546875,-0.477294921875,11.0,5.0,38.0,-76.0,-971.0,113.0,801,618.150922884598,301.8952580111885,
307,14.694999933242798,0.048999786376953125,20.40825223822499,20.891459775070118,102046.75,-74.0,-984.0,144.0,-12.0,41.6875,-8.5625,0.625,1.0625,3.0625,100.5,-4.5,83.3125,0.38299560546875,-0.54339599609375,0.57440185546875,-0.47760009765625,2.0,-13.0,30.0,-77.0,-970.0,113.0,825,659.5207383076784,410.3733320495577,
308,14.740999937057495,0.046000003814697266,21.739128631995772,20.894104966768015,102042.0,-86.0,-970.0,158.0,-11.5625,42.0625,-8.5625,2.75,3.375,3.125,100.5,-4.625,83.0625,0.381103515625,-0.54296875,0.57537841796875,-0.4783935546875,-7.0,0.0,41.0,-79.0,-970.0,117.0,801,687.8165906461428,451.32410038721355,
309,14.787999868392944,0.04699993133544922,21.276626828723902,20.89532071611926,102042.0,-51.0,-957.0,144.0,-12.375,43.5625,-8.5625,2.1875,4.875,8.3125,100.25,-5.0625,82.8125,0.3770751953125,-0.543701171875,0.575439453125,-0.480712890625,35.0,11.0,22.0,-86.0,-969.0,122.0,782,706.6532725169143,441.21549048092965,
310,14.835999965667725,0.04800009727478027,20.833291113462177,20.895120026784646,102042.0,-21.0,-922.0,121.0,-10.875,42.375,-9.75,-2.625,-1.0625,0.6875,100.1875,-5.25,82.8125,0.3756103515625,-0.5447998046875,0.57537841796875,-0.480712890625,68.0,46.0,0.0,-89.0,-968.0,121.0,787,722.7226180135315,419.9278629315094,
311,14.883999824523926,0.04799985885620117,20.833394593842822,20.89492096657879,102042.0,-106.0,-932.0,168.0,-12.0,42.375,-10.1875,-0.8125,-3.9375,-1.25,100.125,-5.1875,82.875,0.3768310546875,-0.544677734375,0.574462890625,-0.48095703125,-17.0,36.0,47.0,-89.0,-969.0,120.0,740,726.1780944108252,350.34015100411375,
312,14.930999994277954,0.04700016975402832,21.27651889840869,20.89612216995302,102042.0,-69.0,-955.0,122.0,-11.25,42.75,-9.75,-7.0,0.3125,-8.125,100.375,-4.875,83.125,0.3792724609375,-0.5447998046875,0.57452392578125,-0.47882080078125,4.0,-21.0,11.0,-84.0,-970.0,116.0,721,725.1424755286603,275.8652478597047,
313,14.97599983215332,0.04499983787536621,22.222302284058216,20.9001070718492,102042.0,-93.0,-924.0,146.0,-11.25,42.375,-8.5625,-1.5625,0.25,-2.9375,100.4375,-4.75,83.25,0.380859375,-0.54461669921875,0.57440185546875,-0.4779052734375,-12.0,45.0,31.0,-81.0,-970.0,114.0,731,726.3139804229282,225.89890546529907,
314,15.023000001907349,0.04700016975402832,21.27651889840869,20.901284694144575,102042.0,-80.0,-991.0,120.0,-12.375,40.875,-9.0,-4.375,0.75,-3.6875,100.625,-4.625,83.4375,0.38201904296875,-0.5452880859375,0.57415771484375,-0.47650146484375,-2.0,-9.0,20.0,-79.0,-971.0,111.0,745,730.0511843383426,196.62206231894353,
315,15.071999788284302,0.048999786376953125,20.40825223822499,20.8996818222393,102042.0,-75.0,-944.0,154.0,-11.5625,41.25,-10.1875,-2.375,0.75,1.75,100.8125,-4.625,83.5,0.3809814453125,-0.5462646484375,0.57489013671875,-0.475341796875,8.0,20.0,44.0,-79.0,-971.0,110.0,726,729.2409474706742,153.9905461815375,
316,15.11899995803833,0.04700016975402832,21.27651889840869,20.900853289042576,102043.75,-94.0,-972.0,157.0,-11.5625,41.6875,-7.75,-1.8125,1.625,2.5625,100.625,-4.75,83.4375,0.3804931640625,-0.54620361328125,0.57427978515625,-0.4765625,-20.0,1.0,56.0,-81.0,-970.0,111.0,740,731.3927579765394,132.3490443239972,
317,15.164999723434448,0.045999765396118164,21.739241306747797,20.90339635879719,102043.75,-93.0,-968.0,133.0,-11.5625,42.5,-9.0,-0.25,2.5625,6.5,100.5,-4.875,83.4375,0.3795166015625,-0.54705810546875,0.57391357421875,-0.476806640625,-13.0,0.0,27.0,-84.0,-970.0,111.0,670,719.1142063812316,52.4939562536478,
318,15.212999820709229,0.04800009727478027,20.833291113462177,20.903175162541668,102043.75,-83.0,-953.0,134.0,-11.25,41.6875,-9.0,2.25,1.8125,5.75,100.3125,-5.1875,83.3125,0.37713623046875,-0.54791259765625,0.57354736328125,-0.47808837890625,5.0,16.0,21.0,-89.0,-970.0,112.0,653,705.8913651049853,-13.099895328110343,
319,15.259000062942505,0.04600024223327637,21.739015958411727,20.905694913437525,102043.75,-89.0,-959.0,132.0,-11.25,42.375,-9.75,0.125,5.0,5.5625,100.3125,-5.5,83.3125,0.3741455078125,-0.54974365234375,0.573486328125,-0.478515625,5.0,9.0,19.0,-95.0,-969.0,113.0,470,658.7130920839883,-215.6017622812403,
320,15.30299997329712,0.04399991035461426,22.72731903180185,20.910932533384443,102043.75,-63.0,-974.0,146.0,-10.875,42.375,-8.5625,-1.0625,6.3125,4.75,100.375,-5.6875,83.25,0.3719482421875,-0.5509033203125,0.573974609375,-0.478271484375,35.0,-5.0,32.0,-98.0,-969.0,114.0,268,580.5704736671906,-527.6758535727753,
321,15.350000143051147,0.04700016975402832,21.27651889840869,20.912051922378303,102043.75,-76.0,-1010.0,131.0,-10.875,42.75,-9.0,-0.75,2.5,3.5,100.375,-5.875,83.25,0.37054443359375,-0.55181884765625,0.573974609375,-0.478271484375,23.0,-42.0,17.0,-100.0,-968.0,114.0,639,592.2563789337526,-372.4136060084166,
322,15.394000053405762,0.04399991035461426,22.72731903180185,20.917240410737875,102043.75,-110.0,-967.0,123.0,-10.5,41.25,-8.5625,1.9375,-4.4375,-1.375,100.3125,-5.8125,83.25,0.37078857421875,-0.55145263671875,0.573974609375,-0.478515625,7.0,-12.0,6.0,-100.0,-968.0,114.0,815,636.805103147002,-95.43627127587806,
323,15.437999963760376,0.04399991035461426,22.72731903180185,20.922399323631293,102043.75,-124.0,-959.0,125.0,-10.5,41.25,-8.5625,2.875,-4.1875,-3.1875,100.25,-5.6875,83.125,0.37213134765625,-0.54962158203125,0.57403564453125,-0.4794921875,-26.0,9.0,9.0,-97.0,-968.0,116.0,834,676.2440825176016,102.91943626815116,
324,15.483000040054321,0.04500007629394531,22.222184546263723,20.926177043325982,102043.75,-100.0,-935.0,149.0,-11.25,42.0625,-8.5625,0.3125,-1.9375,-2.0,100.1875,-5.5625,83.0625,0.37335205078125,-0.5482177734375,0.5740966796875,-0.48004150390625,-2.0,37.0,27.0,-95.0,-968.0,117.0,792,699.3952660140812,185.22952343915827,
325,15.526999950408936,0.04399991035461426,22.72731903180185,20.931281061248438,102046.5,-98.0,-974.0,141.0,-11.5625,41.25,-9.75,-2.5,1.75,-2.875,100.3125,-5.5,83.125,0.37371826171875,-0.5484619140625,0.574462890625,-0.47906494140625,-3.0,-5.0,24.0,-94.0,-969.0,116.0,787,716.916212811265,227.82444827109123,
326,15.574000120162964,0.04700016975402832,21.27651889840869,20.932322941101198,102046.5,-71.0,-1004.0,141.0,-11.5625,41.25,-8.1875,-2.125,3.875,1.3125,100.3125,-5.5,83.1875,0.3741455078125,-0.549072265625,0.57391357421875,-0.47869873046875,23.0,-35.0,27.0,-94.0,-969.0,114.0,773,728.132970249012,229.990268937491,
327,15.623999834060669,0.04999971389770508,20.00011444157281,20.92933970001284,102046.5,-115.0,-975.0,139.0,-11.25,42.1875,-9.75,3.125,1.9375,5.5,100.3125,-5.6875,83.1875,0.37237548828125,-0.5499267578125,0.57403564453125,-0.47894287109375,-18.0,-7.0,24.0,-97.0,-968.0,115.0,778,738.1063761992096,223.88606722523593,
328,15.674000024795532,0.05000019073486328,19.999923706345726,20.92637485524559,102046.5,-85.0,-952.0,134.0,-11.25,42.375,-9.75,1.6875,0.0625,1.75,100.3125,-5.75,83.0625,0.37091064453125,-0.550048828125,0.57452392578125,-0.4793701171875,13.0,16.0,16.0,-99.0,-968.0,117.0,797,749.8851009593677,226.22357309243012,
329,15.716999769210815,0.0429997444152832,23.25595218292913,20.932748287271867,102046.5,-98.0,-938.0,119.0,-10.5,42.375,-9.375,-0.0625,0.375,-0.75,100.25,-5.875,83.0,0.37030029296875,-0.550048828125,0.574462890625,-0.4798583984375,2.0,29.0,1.0,-100.0,-968.0,118.0,801,760.1080807674942,228.52788439091222,
330,15.763000011444092,0.04600024223327637,21.739015958411727,20.935101171123314,102046.5,-100.0,-929.0,124.0,-10.0625,42.375,-10.1875,-0.75,-1.375,-1.9375,100.4375,-5.75,83.0625,0.3704833984375,-0.55023193359375,0.5751953125,-0.478759765625,-1.0,39.0,6.0,-98.0,-968.0,117.0,759,759.8864646139955,181.85876409321952,
331,15.809999942779541,0.04699993133544922,21.276626828723902,20.93611645780988,102046.5,-95.0,-964.0,130.0,-10.875,42.0625,-9.0,-2.5625,-2.25,-5.5625,100.5625,-5.5,83.125,0.37255859375,-0.54925537109375,0.575439453125,-0.47784423828125,0.0,4.0,13.0,-94.0,-969.0,116.0,811,770.1091716911965,188.9879560067677,
332,15.859999895095825,0.04999995231628418,20.000019073504518,20.93316533392033,102046.5,-105.0,-977.0,139.0,-12.375,40.875,-8.5625,-2.3125,-1.375,-4.75,100.5,-5.375,83.125,0.37420654296875,-0.5484619140625,0.57501220703125,-0.47802734375,-21.0,0.0,30.0,-92.0,-969.0,115.0,768,769.6873373529572,149.50302584328534,
333,15.908999919891357,0.04900002479553223,20.408152938142575,20.931548285674644,102042.0,-76.0,-980.0,138.0,-11.25,42.5,-8.1875,-1.5,-0.5,-3.375,100.5,-5.125,83.1875,0.37640380859375,-0.547119140625,0.57501220703125,-0.4779052734375,11.0,-10.0,23.0,-88.0,-969.0,115.0,801,775.9498698823659,145.16376500268117,
334,15.955999851226807,0.04699993133544922,21.276626828723902,20.932564747693938,102042.0,-84.0,-1005.0,127.0,-11.5625,42.1875,-7.75,1.0625,-2.25,-0.1875,100.3125,-5.0625,83.1875,0.37823486328125,-0.54583740234375,0.57427978515625,-0.478759765625,1.0,-35.0,11.0,-86.0,-969.0,115.0,797,780.1598959058928,134.04604253050456,
335,16.002000093460083,0.04600024223327637,21.739015958411727,20.93488301733684,102042.0,-83.0,-935.0,131.0,-11.5625,41.75,-8.5625,1.3125,-2.875,0.5625,100.1875,-5.0,83.0625,0.3785400390625,-0.54473876953125,0.57415771484375,-0.4798583984375,2.0,32.0,15.0,-86.0,-969.0,117.0,811,786.3279167247143,134.0541746268392,
336,16.04699993133545,0.04499983787536621,22.222302284058216,20.938493265889715,102042.0,-99.0,-944.0,131.0,-11.25,41.375,-8.5625,-0.625,-0.8125,-0.0625,100.0625,-5.0625,83.0,0.37884521484375,-0.5443115234375,0.57379150390625,-0.48065185546875,-18.0,15.0,19.0,-86.0,-969.0,118.0,806,790.2623333797716,124.72969894549445,
337,16.09500002861023,0.04800009727478027,20.833291113462177,20.938179521649822,102042.0,-94.0,-958.0,126.0,-11.25,43.25,-8.5625,-0.9375,0.8125,0.0,100.0,-5.0625,83.0625,0.37890625,-0.54437255859375,0.57342529296875,-0.48089599609375,-6.0,10.0,8.0,-87.0,-969.0,117.0,820,796.2098667038173,124.56509778576789,
338,16.14299988746643,0.04799985885620117,20.833394593842822,20.937867952438395,102042.0,-78.0,-979.0,126.0,-11.25,43.25,-8.5625,-0.875,-0.8125,0.0,100.0,-5.0625,83.0625,0.37908935546875,-0.5445556640625,0.5732421875,-0.48077392578125,2.0,-6.0,12.0,-87.0,-969.0,117.0,811,799.167893363054,111.9772255508112,
339,16.188999891281128,0.046000003814697266,21.739128631995772,20.940144683216314,102042.0,-64.0,-949.0,139.0,-11.5625,42.5,-8.1875,-0.625,-3.125,-3.875,99.875,-4.9375,83.0625,0.38079833984375,-0.5430908203125,0.57281494140625,-0.4815673828125,21.0,20.0,22.0,-85.0,-969.0,117.0,811,801.5343146904432,99.8705679673717,
340,16.23699975013733,0.04799985885620117,20.833394593842822,20.939829108337847,102042.0,-79.0,-959.0,130.0,-11.5625,42.5,-9.75,0.1875,-3.25,-1.6875,99.9375,-4.75,83.0,0.38238525390625,-0.54180908203125,0.57330322265625,-0.481201171875,4.0,21.0,13.0,-81.0,-970.0,118.0,815,804.2274517523547,91.11789179511808,
341,16.28499984741211,0.04800009727478027,20.833291113462177,20.939515087203958,102047.75,-78.0,-953.0,129.0,-11.25,42.0625,-9.375,-1.3125,0.375,0.4375,99.9375,-4.6875,83.0,0.382568359375,-0.5413818359375,0.5733642578125,-0.4814453125,5.0,6.0,18.0,-80.0,-970.0,118.0,867,816.7819614018838,125.20466429917646,
342,16.335000038146973,0.05000019073486328,19.999923706345726,20.936639069564162,102047.75,-80.0,-954.0,162.0,-11.5625,41.6875,-8.1875,-0.25,1.5625,-0.4375,99.875,-4.6875,82.9375,0.3826904296875,-0.54107666015625,0.5733642578125,-0.481689453125,7.0,11.0,33.0,-80.0,-970.0,119.0,884,830.2255691215071,153.9379571854424,
343,16.381999969482422,0.04699993133544922,21.276626828723902,20.93761449389362,102047.75,-81.0,-958.0,138.0,-12.375,42.375,-8.1875,1.75,2.25,2.1875,99.8125,-4.75,82.875,0.3824462890625,-0.54071044921875,0.57330322265625,-0.482421875,0.0,11.0,17.0,-81.0,-969.0,120.0,922,848.5804552972057,201.2563784771626,
344,16.42899990081787,0.04699993133544922,21.276626828723902,20.938584337253232,102047.75,-74.0,-932.0,140.0,-10.875,42.0625,-7.375,0.3125,2.0625,1.0,99.625,-4.8125,82.8125,0.38226318359375,-0.5400390625,0.572998046875,-0.483642578125,8.0,36.0,18.0,-82.0,-969.0,122.0,992,877.2643642377647,283.064468085204,
345,16.476999759674072,0.04799985885620117,20.833394593842822,20.938277904473573,102047.75,-55.0,-940.0,116.0,-11.5625,43.875,-9.375,1.5,0.875,1.375,99.6875,-4.875,82.75,0.38128662109375,-0.5401611328125,0.5733642578125,-0.48382568359375,7.0,45.0,13.0,-83.0,-969.0,123.0,1189,939.6114913902118,486.2320348200477,
346,16.526999950408936,0.05000019073486328,19.999923706345726,20.93543904146008,102047.75,-69.0,-945.0,116.0,-11.25,43.0625,-8.1875,-1.0625,0.3125,1.25,99.5,-4.875,82.75,0.3818359375,-0.53997802734375,0.57275390625,-0.484375,4.0,25.0,-4.0,-84.0,-969.0,122.0,707,893.0891931121695,202.89714461509723,
347,16.574000120162964,0.04700016975402832,21.27651889840869,20.9364062679027,102047.75,-98.0,-979.0,120.0,-11.25,41.6875,-9.0,-2.75,1.1875,0.625,99.5,-4.9375,82.875,0.38189697265625,-0.54083251953125,0.57196044921875,-0.48419189453125,-2.0,-10.0,-2.0,-85.0,-969.0,120.0,653,845.0713544897357,-42.012774490112605,
348,16.621999979019165,0.04799985885620117,20.833394593842822,20.936108797933887,102047.75,-96.0,-998.0,110.0,-12.75,41.25,-8.5625,-3.625,1.375,1.1875,99.4375,-5.0,83.0,0.38238525390625,-0.54180908203125,0.571044921875,-0.48388671875,-16.0,-36.0,-6.0,-85.0,-969.0,118.0,667,809.4570835917885,-182.0034513498791,
349,16.668999910354614,0.04699993133544922,21.276626828723902,20.937068922965484,102044.75,-105.0,-1015.0,114.0,-11.25,41.75,-9.375,-2.25,-1.375,-1.4375,99.4375,-5.0,83.125,0.3829345703125,-0.542236328125,0.5706787109375,-0.4833984375,-20.0,-45.0,-1.0,-85.0,-969.0,116.0,689,785.3656668734309,-248.11957773825853,
350,16.715999841690063,0.04699993133544922,21.276626828723902,20.938023648881142,102044.75,-95.0,-973.0,117.0,-10.875,41.75,-9.375,-0.6875,-2.375,-1.0625,99.4375,-4.9375,83.125,0.383544921875,-0.5419921875,0.570556640625,-0.4832763671875,-9.0,-23.0,8.0,-84.0,-970.0,115.0,675,763.2925334987448,-292.4240265413763,
351,16.763999938964844,0.04800009727478027,20.833291113462177,20.937723769860252,102044.75,-108.0,-975.0,142.0,-11.5625,41.75,-9.0,-0.75,-1.1875,1.875,99.375,-4.875,83.1875,0.38397216796875,-0.541748046875,0.57025146484375,-0.483642578125,-23.0,-5.0,26.0,-84.0,-970.0,115.0,665,743.6340267989958,-315.84949981946437,
352,16.80999994277954,0.046000003814697266,21.739128631995772,20.939916787518836,102044.75,-78.0,-1013.0,121.0,-11.5625,42.875,-8.1875,-1.6875,1.5,0.75,99.25,-5.0,83.25,0.38385009765625,-0.54241943359375,0.5693359375,-0.48406982421875,7.0,-43.0,7.0,-86.0,-970.0,114.0,684,731.7072214391967,-304.5352710326614,
353,16.85800004005432,0.04800009727478027,20.833291113462177,20.93961319025258,102044.75,-72.0,-1009.0,123.0,-12.0,42.375,-9.0,0.0,2.0,1.4375,99.25,-5.0625,83.25,0.38348388671875,-0.54296875,0.5693359375,-0.4837646484375,14.0,-39.0,9.0,-86.0,-970.0,114.0,717,728.7657771513574,-255.8842098546465,
354,16.901999950408936,0.04399991035461426,22.72731903180185,20.944267012107947,102044.75,-77.0,-967.0,127.0,-11.5625,42.0625,-9.0,0.9375,2.125,3.5625,99.25,-5.1875,83.1875,0.38201904296875,-0.5435791015625,0.5694580078125,-0.48406982421875,11.0,2.0,13.0,-89.0,-969.0,114.0,698,722.6126217210859,-232.67631318692588,
355,16.948999881744385,0.04699993133544922,21.276626828723902,20.945188652834158,102044.75,-86.0,-976.0,131.0,-11.25,42.0625,-7.75,1.125,0.75,1.625,99.0625,-5.3125,83.1875,0.38165283203125,-0.5438232421875,0.5687255859375,-0.48492431640625,5.0,-7.0,16.0,-91.0,-969.0,114.0,707,719.4900973768688,-199.4284075966435,
356,16.99399995803833,0.04500007629394531,22.222184546263723,20.948570135285216,102044.75,-76.0,-940.0,115.0,-11.25,42.0625,-7.75,-0.1875,0.875,-1.9375,99.125,-5.3125,83.1875,0.3814697265625,-0.543701171875,0.569091796875,-0.48480224609375,15.0,29.0,0.0,-91.0,-969.0,115.0,721,719.7920779014951,-158.20059268779022,
357,17.039000034332275,0.04500007629394531,22.222184546263723,20.951933756715327,102049.0,-78.0,-958.0,120.0,-10.0625,42.0625,-7.75,0.5625,0.375,-0.0625,99.125,-5.25,83.1875,0.38214111328125,-0.54351806640625,0.56884765625,-0.48468017578125,11.0,11.0,5.0,-90.0,-969.0,114.0,721,720.0336623211962,-125.48676743861222,
358,17.086999893188477,0.04799985885620117,20.833394593842822,20.951600763028758,102049.0,-109.0,-948.0,135.0,-11.25,43.1875,-9.0,-2.3125,0.4375,-0.125,99.125,-5.25,83.25,0.38226318359375,-0.5435791015625,0.56878662109375,-0.484619140625,-19.0,21.0,21.0,-90.0,-969.0,114.0,731,722.226929856957,-91.25077234641573,
359,17.138000011444092,0.051000118255615234,19.607797671918096,20.947601806527818,102049.0,-76.0,-953.0,115.0,-11.25,42.0625,-10.5625,-2.0625,-0.25,-3.8125,99.1875,-5.1875,83.375,0.3829345703125,-0.54412841796875,0.56866455078125,-0.483642578125,12.0,16.0,3.0,-89.0,-970.0,112.0,792,736.1815438855656,-18.276768184599106,
360,17.187999963760376,0.04999995231628418,20.000019073504518,20.944845285026375,102049.0,-104.0,-994.0,110.0,-11.5625,42.75,-7.75,-3.4375,-1.6875,-3.5,99.3125,-5.0,83.5,0.38482666015625,-0.54400634765625,0.5684814453125,-0.48248291015625,-18.0,-23.0,0.0,-85.0,-970.0,109.0,782,745.3452351084525,22.03338530060943,
361,17.23799991607666,0.04999995231628418,20.000019073504518,20.942104754468694,102049.0,-105.0,-987.0,135.0,-10.875,42.0625,-8.1875,0.4375,-3.0,-6.125,99.5,-4.6875,83.5625,0.3868408203125,-0.542724609375,0.56903076171875,-0.481689453125,-24.0,-16.0,26.0,-80.0,-971.0,109.0,829,762.0761880867619,84.55058397730683,
362,17.283999919891357,0.046000003814697266,21.739128631995772,20.94422597071358,102049.0,-46.0,-979.0,114.0,-12.375,42.0625,-7.375,1.0625,-1.125,-4.4375,99.625,-4.5,83.5,0.38787841796875,-0.54150390625,0.56988525390625,-0.481201171875,30.0,-8.0,4.0,-77.0,-971.0,110.0,820,773.6609504694096,118.00899510334222,
363,17.330999851226807,0.04699993133544922,21.276626828723902,20.945127408463073,102049.0,-59.0,-949.0,135.0,-11.5625,42.1875,-9.0,4.9375,-0.625,-0.125,99.6875,-4.375,83.3125,0.38800048828125,-0.54010009765625,0.57080078125,-0.4815673828125,16.0,21.0,22.0,-75.0,-971.0,113.0,806,780.1287603755278,121.92983163699388,
364,17.38099980354309,0.04999995231628418,20.000019073504518,20.94240861367475,102049.0,-88.0,-936.0,131.0,-12.375,41.6875,-7.75,3.4375,1.3125,3.75,99.5625,-4.5625,83.125,0.38641357421875,-0.539794921875,0.5712890625,-0.482666015625,-10.0,33.0,14.0,-78.0,-970.0,116.0,801,784.3030083004223,114.24087293268056,
365,17.42899990081787,0.04800009727478027,20.833291113462177,20.942108100125242,102045.75,-80.0,-945.0,136.0,-12.75,43.6875,-8.5625,1.8125,0.875,3.625,99.5,-4.6875,83.0,0.384765625,-0.53997802734375,0.5714111328125,-0.48358154296875,0.0,24.0,18.0,-80.0,-970.0,118.0,825,792.4424066403379,125.30678936692296,
366,17.480000019073486,0.051000118255615234,19.607797671918096,20.938215080127875,102045.75,-80.0,-965.0,116.0,-11.5625,43.25,-9.375,0.375,1.0625,-1.3125,99.4375,-4.75,82.9375,0.3839111328125,-0.5399169921875,0.57171630859375,-0.4840087890625,1.0,3.0,-3.0,-82.0,-969.0,119.0,848,803.5539253122704,143.81991348293673,
367,17.527999877929688,0.04799985885620117,20.833394593842822,20.937928032627763,102045.75,-89.0,-947.0,121.0,-11.5625,42.375,-9.75,3.5,-1.125,-0.125,99.5,-4.6875,82.8125,0.38385009765625,-0.53924560546875,0.57232666015625,-0.48406982421875,-8.0,21.0,0.0,-81.0,-969.0,121.0,867,816.2431402498163,167.92781516234504,
368,17.575000047683716,0.04700016975402832,21.27651889840869,20.938833513602198,102045.75,-85.0,-936.0,120.0,-11.5625,41.375,-9.75,0.0625,-0.1875,-0.1875,99.5,-4.6875,82.75,0.38360595703125,-0.538818359375,0.5726318359375,-0.48443603515625,-3.0,33.0,-2.0,-81.0,-969.0,122.0,782,809.394512199853,105.19925930323292,
369,17.620999813079834,0.045999765396118164,21.739241306747797,20.94092298475006,102045.75,-68.0,-964.0,116.0,-11.5625,42.1875,-9.375,-1.375,0.625,1.375,99.5,-4.75,82.75,0.383544921875,-0.53900146484375,0.57244873046875,-0.484375,13.0,4.0,-6.0,-81.0,-969.0,122.0,872,821.9156097598824,138.59923969914828,
370,17.66600012779236,0.045000314712524414,22.222066809716814,20.944186421572116,102045.75,-89.0,-941.0,115.0,-12.0,41.0,-8.1875,1.3125,-0.4375,3.625,99.3125,-4.9375,82.75,0.382568359375,-0.5394287109375,0.57183837890625,-0.48541259765625,-4.0,27.0,-7.0,-84.0,-969.0,122.0,815,820.5324878079059,104.7322260747572,
371,17.71399998664856,0.04799985885620117,20.833394593842822,20.943886207498647,102045.75,-107.0,-971.0,131.0,-10.875,42.1875,-9.0,-0.5,-0.625,2.1875,99.25,-5.0,82.75,0.38226318359375,-0.539794921875,0.57135009765625,-0.48583984375,-21.0,-2.0,9.0,-85.0,-969.0,122.0,782,812.8259902463247,51.675279932424196,
372,17.759000062942505,0.04500007629394531,22.222184546263723,20.947125326962976,102045.75,-86.0,-957.0,141.0,-11.25,42.5,-9.0,-0.6875,0.3125,1.6875,99.0625,-5.125,82.75,0.38165283203125,-0.54010009765625,0.57086181640625,-0.48651123046875,-6.0,0.0,19.0,-88.0,-968.0,122.0,820,814.2607921970598,47.71711069325405,
373,17.806999921798706,0.04799985885620117,20.833394593842822,20.946818758806554,102046.5,-80.0,-943.0,151.0,-10.5,43.6875,-7.375,-2.0,0.4375,2.25,98.9375,-5.25,82.75,0.38104248046875,-0.54046630859375,0.5703125,-0.4871826171875,19.0,14.0,29.0,-90.0,-968.0,122.0,792,809.8086337576478,19.622973842087873,
374,17.855000019073486,0.04800009727478027,20.833291113462177,20.94651355925382,102046.5,-85.0,-976.0,207.0,-11.5625,41.75,-9.0,1.8125,-1.5,0.375,98.9375,-5.3125,82.75,0.381103515625,-0.5408935546875,0.5699462890625,-0.4873046875,34.0,-9.0,71.0,-90.0,-968.0,121.0,750,797.8469070061183,-34.142048053190464,
375,17.901999950408936,0.04699993133544922,21.276626828723902,20.947380239012563,102046.5,19.0,-318.0,74.0,-11.25,41.75,-9.375,31.75,-14.0,94.375,96.9375,-7.0,81.875,0.37091064453125,-0.540771484375,0.56524658203125,-0.50048828125,143.0,668.0,-57.0,-104.0,-966.0,131.0,693,776.8775256048947,-116.54517902315594,
