Index,Time,Difference,Hz,AveHz,Pressure,Acceleration-X,Acceleration-Y,Acceleration-Z,Magnetic-X,Magnetic-Y,Magnetic-Z,Angular-Vel-X,Angular-Vel-Y,Angular-Vel-Z,Heading,Roll,Pitch,Quaternion-X,Quaternion-Y,Quaternion-Z,Quaternion-W,Linear-Acceleration-X,Linear-Acceleration-Y,Linear-Acceleration-Z,Gravity-X,Gravity-Y,Gravity-Z,Position-X,Position-Y,Position-Z
0,0.0,0.0,0,0,2.596666446994582e-38,996.0,-40.0,80.0,-42.5625,7.0,-10.6875,-59.375,-1.5,-3.3125,224.875,87.0,1.375,-0.631591796875,0.279541015625,-0.66827392578125,-0.27630615234375,16.0,-16.0,36.0,979.0,-24.0,44.0,2962,3592,-50,
1,0.08700013160705566,0.08700013160705566,11.494235485948398,11.494235485948398,2.596666446994582e-38,990.0,-31.0,52.0,-44.5,8.375,-11.875,-59.8125,0.875,-3.375,230.1875,87.0625,1.3125,-0.61865234375,0.307861328125,-0.65460205078125,-0.306640625,11.0,2.0,10.0,979.0,-23.0,44.0,2872,3612,158,
2,0.1700000762939453,0.08299994468688965,12.048200800282656,11.764700602497504,2.596666446994582e-38,994.0,-33.0,68.0,-45.25,12.375,-11.875,-60.375,0.4375,-3.375,234.875,87.125,1.3125,-0.6060791015625,0.33282470703125,-0.64111328125,-0.3330078125,15.0,-11.0,26.0,979.0,-22.0,42.0,2804,3629,361,
3,0.2609999179840088,0.09099984169006348,10.989030106292951,11.494256485489805,2.596666446994582e-38,994.0,-22.0,59.0,-47.0625,12.25,-12.25,-60.75,0.3125,-3.375,240.1875,87.1875,1.25,-0.5904541015625,0.3603515625,-0.624755859375,-0.36224365234375,15.0,0.0,17.0,979.0,-22.0,42.0,2779,3648,537,
4,0.35500001907348633,0.09400010108947754,10.63828643171471,11.267605028415463,2.596307714587715e-38,993.0,-33.0,64.0,-47.75,14.75,-10.75,-61.375,-0.375,-3.5,245.5625,87.25,1.1875,-0.57354736328125,0.38726806640625,-0.60687255859375,-0.390869140625,10.0,-20.0,26.0,979.0,-21.0,41.0,2769,3676,669,
5,0.4529998302459717,0.09799981117248535,10.204101294031496,11.037531729945858,2.596307714587715e-38,991.0,-37.0,68.0,-51.0625,18.375,-8.0625,-61.75,-0.25,-3.6875,251.5625,87.25,1.1875,-0.55279541015625,0.4163818359375,-0.58551025390625,-0.422119140625,11.0,-17.0,27.0,979.0,-20.0,41.0,2755,3696,753,
6,0.5449998378753662,0.09200000762939453,10.869564315997886,11.009177586897035,2.596307714587715e-38,997.0,-41.0,47.0,-51.5,19.375,-4.0,-62.375,2.0625,-3.5,257.0,87.375,1.0625,-0.53338623046875,0.44195556640625,-0.564208984375,-0.44921875,17.0,-22.0,8.0,979.0,-19.0,39.0,2597,3762,896,
7,0.6430001258850098,0.09800028800964355,10.20405164423187,10.886467542079203,2.596307714587715e-38,987.0,-55.0,70.0,-51.0625,21.75,1.75,-62.5625,1.1875,-3.4375,263.125,87.375,1.0625,-0.5093994140625,0.46923828125,-0.53961181640625,-0.47869873046875,15.0,-8.0,17.0,979.0,-18.0,39.0,2587,3771,976,
8,0.7380001544952393,0.09500002861022949,10.526312619366108,10.840106131782127,2.596451207550462e-38,990.0,-20.0,50.0,-47.5625,20.0,7.1875,-63.0625,1.4375,-3.25,269.3125,87.5,1.0,-0.4842529296875,0.49560546875,-0.51287841796875,-0.50677490234375,10.0,6.0,5.0,979.0,-17.0,39.0,2623,3739,1009,
9,0.8369998931884766,0.0989997386932373,10.101036762315315,10.75268954421882,2.596451207550462e-38,982.0,-12.0,59.0,-43.6875,18.375,9.875,-63.375,-2.25,-3.625,275.5,87.5,0.9375,-0.45733642578125,0.520751953125,-0.48468017578125,-0.53363037109375,17.0,-18.0,17.0,979.0,-16.0,38.0,2745,3718,1021,
10,0.9300000667572021,0.09300017356872559,10.752668104011834,10.752687400194272,2.596451207550462e-38,996.0,-3.0,53.0,-39.5625,17.875,12.1875,-63.875,1.875,-3.4375,280.5,87.5625,0.875,-0.43487548828125,0.53985595703125,-0.4608154296875,-0.55419921875,16.0,11.0,15.0,979.0,-15.0,38.0,2901,3692,923,
11,1.0279998779296875,0.09799981117248535,10.204101294031496,10.70039037568093,2.5958772356994744e-38,985.0,3.0,40.0,-36.5625,17.0,14.1875,-64.125,-0.25,-3.625,286.8125,87.625,0.75,-0.40545654296875,0.56243896484375,-0.4295654296875,-0.57861328125,5.0,17.0,2.0,979.0,-13.0,37.0,2956,3674,845,
12,1.124000072479248,0.09600019454956055,10.416645556731089,10.67615589519595,2.5958772356994744e-38,992.0,-30.0,79.0,-33.25,14.0,14.5625,-64.9375,1.0625,-3.25,292.5,87.6875,0.6875,-0.3778076171875,0.58172607421875,-0.4000244140625,-0.59906005859375,3.0,-6.0,0.0,979.0,-12.0,37.0,3016,3678,558,
13,1.2209999561309814,0.0969998836517334,10.309290716166029,10.647011029544574,2.5958772356994744e-38,1000.0,-23.0,56.0,-31.0,12.875,15.6875,-65.25,0.375,-3.3125,298.875,87.6875,0.625,-0.34552001953125,0.60150146484375,-0.3660888671875,-0.62030029296875,20.0,-11.0,19.0,979.0,-11.0,36.0,3080,3504,479,
14,1.315999984741211,0.09500002861022949,10.526312619366108,10.638297995689625,2.5958772356994744e-38,990.0,-1.0,44.0,-29.5625,12.0625,15.375,-65.0,0.625,-3.375,305.3125,87.6875,0.5625,-0.31195068359375,0.61944580078125,-0.33087158203125,-0.63995361328125,10.0,8.0,6.0,979.0,-10.0,37.0,3117,3501,170,
15,1.4079999923706055,0.09200000762939453,10.869564315997886,10.653409148635697,2.5960924751435946e-38,956.0,-62.0,2.0,-28.0625,10.5,15.375,-66.75,2.0,-3.625,311.75,87.75,0.5,-0.27752685546875,0.63592529296875,-0.2940673828125,-0.6573486328125,41.0,1.0,44.0,979.0,-9.0,36.0,3198,3506,53,
16,1.5,0.09200000762939453,10.869564315997886,10.666666666666666,2.5960924751435946e-38,991.0,-19.0,71.0,-27.0625,8.875,14.5625,-66.1875,-1.0625,-3.625,317.625,87.8125,0.4375,-0.24554443359375,0.64898681640625,-0.26007080078125,-0.6715087890625,12.0,-6.0,2.0,979.0,-7.0,36.0,3226,3574,58,
17,1.5920000076293945,0.09200000762939453,10.869564315997886,10.678391908624583,2.5960924751435946e-38,999.0,-32.0,56.0,-25.6875,8.75,13.75,-66.8125,-2.0625,-3.75,322.8125,87.75,0.375,-0.21630859375,0.6590576171875,-0.22930908203125,-0.68280029296875,10.0,-29.0,31.0,979.0,-6.0,37.0,3195,3569,155,
18,1.6820001602172852,0.09000015258789062,11.111092273131861,10.701544759469412,2.5960924751435946e-38,1006.0,-27.0,90.0,-26.0,7.875,14.0625,-66.875,-1.0,-3.5,328.6875,87.6875,0.3125,-0.1824951171875,0.66864013671875,-0.1942138671875,-0.6942138671875,26.0,-21.0,51.0,979.0,-6.0,38.0,3144,3560,236,
19,1.7679998874664307,0.08599972724914551,11.627943855018865,10.746607018865411,2.5960924751435946e-38,1004.0,-19.0,74.0,-26.75,5.6875,13.25,-67.5625,1.3125,-3.625,334.625,87.6875,0.25,-0.14849853515625,0.6768798828125,-0.158203125,-0.703369140625,25.0,-13.0,35.0,979.0,-5.0,38.0,3121,3498,259,
20,1.8489999771118164,0.08100008964538574,12.345665348988488,10.81665778668126,2.5952315173671135e-38,982.0,-22.0,71.0,-27.875,6.1875,13.1875,-67.3125,-1.0625,-4.0625,340.5625,87.5625,0.1875,-0.11383056640625,0.68292236328125,-0.12176513671875,-0.711181640625,18.0,-12.0,0.0,979.0,-4.0,40.0,3140,3396,249,
21,1.939000129699707,0.09000015258789062,11.111092273131861,10.830324185306925,2.5952315173671135e-38,999.0,-25.0,84.0,-28.5625,3.5625,14.6875,-67.875,2.1875,-3.625,345.8125,87.5625,0.1875,-0.08270263671875,0.6871337890625,-0.0889892578125,-0.71630859375,19.0,-21.0,43.0,979.0,-3.0,41.0,3208,3327,255,
22,2.0310001373291016,0.09200000762939453,10.869564315997886,10.832101680175878,2.5952315173671135e-38,1000.0,-3.0,88.0,-30.0625,1.6875,13.5,-67.1875,-2.0625,-3.625,351.6875,87.4375,0.1875,-0.04730224609375,0.6898193359375,-0.052001953125,-0.7205810546875,20.0,0.0,45.0,979.0,-3.0,43.0,3286,3251,292,
23,2.120999813079834,0.08999967575073242,11.111151142029108,10.843942492669274,2.5952315173671135e-38,985.0,-38.0,64.0,-30.5,0.5,13.875,-67.6875,-0.125,-3.75,357.625,87.375,0.125,-0.011962890625,0.6910400390625,-0.0146484375,-0.72259521484375,6.0,-35.0,20.0,979.0,-2.0,43.0,3346,3214,304,
24,2.2160000801086426,0.0950002670288086,10.526286201877227,10.830324518229876,2.596307714587715e-38,993.0,-8.0,59.0,-32.6875,-0.6875,13.5,-67.625,2.3125,-3.8125,4.1875,87.25,0.125,0.027587890625,0.68975830078125,0.02679443359375,-0.7230224609375,14.0,-5.0,13.0,979.0,-2.0,46.0,3384,3187,276,
25,2.309000015258789,0.09299993515014648,10.752695670007947,10.827197849627575,2.596307714587715e-38,986.0,-12.0,84.0,-33.0,-4.0,13.0,-67.6875,1.0,-3.6875,10.75,87.1875,0.125,0.06689453125,0.6865234375,0.06817626953125,-0.72076416015625,19.0,-8.0,35.0,979.0,-2.0,47.0,3386,3165,271,
26,2.4010000228881836,0.09200000762939453,10.869564315997886,10.828821221219473,2.596307714587715e-38,985.0,-35.0,35.0,-34.375,-5.875,13.5,-67.3125,1.25,-3.625,16.0,87.125,0.1875,0.10223388671875,0.6817626953125,0.1051025390625,-0.71673583984375,32.0,42.0,22.0,979.0,-3.0,48.0,3338,3141,284,
27,2.491999864578247,0.09099984169006348,10.989030106292951,10.834671535814692,2.596307714587715e-38,996.0,-50.0,65.0,-36.6875,-8.5,11.875,-67.25,-0.5,-3.9375,21.875,87.0,0.1875,0.13336181640625,0.6756591796875,0.1376953125,-0.71185302734375,-2.0,-46.0,14.0,979.0,-3.0,50.0,3315,3138,272,
28,2.5829999446868896,0.09100008010864258,10.989001315231004,10.840108633217238,2.595805489218101e-38,981.0,-33.0,89.0,-37.375,-11.0625,12.75,-66.9375,-0.5625,-3.8125,28.375,86.9375,0.1875,0.1715087890625,0.6663818359375,0.17822265625,-0.703369140625,2.0,-29.0,37.0,979.0,-3.0,51.0,3339,3176,315,
29,2.671999931335449,0.08899998664855957,11.235956741755135,10.853293692079541,2.595805489218101e-38,987.0,0.0,101.0,-38.875,-13.0,9.5625,-67.625,1.5,-3.625,34.3125,86.875,0.1875,0.2054443359375,0.65631103515625,0.21417236328125,-0.69366455078125,8.0,2.0,48.0,979.0,-3.0,53.0,3298,3237,401,
30,2.7669999599456787,0.09500002861022949,10.526312619366108,10.842067377763517,2.595805489218101e-38,998.0,-33.0,70.0,-39.6875,-14.375,8.375,-67.1875,-3.125,-3.75,40.0625,86.875,0.25,0.23907470703125,0.64501953125,0.2489013671875,-0.68182373046875,19.0,-28.0,17.0,979.0,-4.0,52.0,3260,3284,481,
31,2.8550000190734863,0.08800005912780762,11.363628728335758,10.858143535165446,2.595805489218101e-38,982.0,-20.0,89.0,-40.75,-17.375,6.875,-67.0625,0.875,-3.6875,45.9375,86.75,0.25,0.2716064453125,0.6312255859375,0.28363037109375,-0.6688232421875,3.0,-14.0,34.0,979.0,-5.0,54.0,3275,3172,352,
32,2.944000005722046,0.08899998664855957,11.235956741755135,10.869565196264894,2.5952315173671135e-38,995.0,-14.0,62.0,-41.1875,-18.75,4.6875,-66.8125,-2.5625,-3.625,51.75,86.75,0.3125,0.303466796875,0.61627197265625,0.3173828125,-0.65374755859375,16.0,-8.0,7.0,979.0,-5.0,55.0,3287,3090,232,
33,3.0269999504089355,0.08299994468688965,12.048200800282656,10.901883231131812,2.5952315173671135e-38,989.0,-8.0,109.0,-41.1875,-21.0,1.5625,-66.8125,2.0,-3.5625,56.9375,86.625,0.3125,0.3309326171875,0.60107421875,0.3468017578125,-0.63946533203125,10.0,-1.0,52.0,978.0,-6.0,57.0,3305,3036,175,
34,3.1100001335144043,0.08300018310546875,12.048166191745565,10.932475414905806,2.5952315173671135e-38,1003.0,-24.0,65.0,-43.0625,-22.0625,1.375,-66.3125,-3.25,-3.5625,62.0,86.6875,0.375,0.358154296875,0.58575439453125,0.37469482421875,-0.623046875,24.0,-17.0,9.0,979.0,-7.0,56.0,3288,2976,141,
35,3.200000047683716,0.08999991416931152,11.11112170750251,10.937499837018551,2.5952315173671135e-38,992.0,-14.0,82.0,-43.0625,-22.875,-3.0,-66.0,-0.625,-3.625,68.375,86.5625,0.4375,0.39056396484375,0.5638427734375,0.40582275390625,-0.601806640625,12.0,3.0,26.0,978.0,-8.0,58.0,3282,2959,139,
36,3.2980000972747803,0.09800004959106445,10.204076469071287,10.915706166821431,2.5952315173671135e-38,991.0,-34.0,78.0,-43.0625,-23.6875,-6.0625,-66.3125,-0.4375,-3.625,74.125,86.5,0.5625,0.41864013671875,0.54296875,0.43878173828125,-0.58087158203125,12.0,-25.0,19.0,978.0,-9.0,58.0,3231,2965,164,
37,3.3969998359680176,0.0989997386932373,10.101036762315315,10.891964023147027,2.5952315173671135e-38,992.0,-32.0,47.0,-46.0,-24.0625,-10.25,-64.875,-3.5625,-4.0,80.5,86.4375,0.5625,0.44818115234375,0.5185546875,0.47052001953125,-0.5557861328125,13.0,-22.0,-11.0,978.0,-10.0,59.0,3197,3042,205,
38,3.495000123977661,0.09800028800964355,10.20405164423187,10.872674864672733,2.5952315173671135e-38,969.0,-13.0,109.0,-46.375,-23.0625,-12.875,-66.125,7.625,-3.625,86.8125,86.375,0.625,0.47637939453125,0.492431640625,0.5006103515625,-0.52911376953125,-9.0,-3.0,49.0,978.0,-10.0,59.0,3245,3162,205,
39,3.5900001525878906,0.09500002861022949,10.526312619366108,10.863509287565469,2.5952315173671135e-38,989.0,-27.0,80.0,-47.375,-21.25,-15.6875,-65.75,5.6875,-3.4375,93.0625,86.5,0.6875,0.50103759765625,0.46856689453125,0.525390625,-0.5032958984375,18.0,-15.0,22.0,978.0,-11.0,57.0,3261,3232,168,
40,3.682000160217285,0.09200000762939453,10.869564315997886,10.863660581057522,2.59515977088574e-38,993.0,-34.0,64.0,-48.875,-20.5625,-18.75,-64.25,-1.5,-3.4375,98.625,86.4375,0.75,0.5260009765625,0.4395751953125,0.55224609375,-0.47442626953125,15.0,-21.0,5.0,978.0,-13.0,59.0,3077,3235,162,
41,3.7750000953674316,0.09299993515014648,10.752695670007947,10.860926877939416,2.59515977088574e-38,996.0,-33.0,107.0,-50.0625,-16.875,-20.75,-64.9375,3.3125,-3.4375,104.1875,86.4375,0.8125,0.5472412109375,0.41290283203125,0.57464599609375,-0.447021484375,18.0,-19.0,48.0,978.0,-14.0,58.0,2963,3288,83,
42,3.874000072479248,0.0989999771118164,10.101012436301284,10.841507282967399,2.59515977088574e-38,995.0,-43.0,80.0,-49.6875,-14.375,-22.0,-63.25,-2.0625,-4.0,110.375,86.375,0.875,0.56884765625,0.38214111328125,0.59796142578125,-0.415771484375,17.0,-27.0,20.0,978.0,-15.0,59.0,2921,3226,214,
43,3.9700000286102295,0.09599995613098145,10.416671426762,10.831234178870504,2.59515977088574e-38,980.0,-20.0,94.0,-51.875,-11.875,-23.75,-63.1875,0.8125,-3.8125,116.5,86.3125,0.9375,0.5885009765625,0.3505859375,0.61956787109375,-0.38330078125,1.0,-4.0,34.0,978.0,-16.0,60.0,2871,3177,348,
44,4.065999984741211,0.09599995613098145,10.416671426762,10.821446179321732,2.595303263848487e-38,989.0,-23.0,98.0,-51.5625,-10.0,-22.875,-63.5,2.125,-3.6875,121.9375,86.375,0.9375,0.605224609375,0.32196044921875,0.63671875,-0.35302734375,10.0,-6.0,39.0,978.0,-16.0,58.0,2854,3166,467,
45,4.1600000858306885,0.09400010108947754,10.63828643171471,10.817307469120927,2.595303263848487e-38,995.0,-55.0,106.0,-52.1875,-7.0,-23.0,-62.625,-4.25,-3.6875,128.0,86.375,1.0,0.621826171875,0.2891845703125,0.6541748046875,-0.3189697265625,17.0,-37.0,48.0,978.0,-17.0,58.0,2866,3142,549,
46,4.256999969482422,0.0969998836517334,10.309290716166029,10.805731813428416,2.595303263848487e-38,994.0,-26.0,87.0,-53.25,-4.6875,-22.25,-62.5,0.0625,-3.5,133.375,86.4375,1.0625,0.63519287109375,0.25933837890625,0.66827392578125,-0.28759765625,15.0,-7.0,29.0,978.0,-18.0,57.0,2904,3150,594,
47,4.3500001430511475,0.09300017356872559,10.752668104011834,10.80459734583677,2.595303263848487e-38,999.0,-32.0,67.0,-54.375,-3.0625,-22.25,-61.3125,-3.625,-3.5625,139.375,86.4375,1.0625,0.64801025390625,0.22552490234375,0.6822509765625,-0.25244140625,20.0,-13.0,10.0,978.0,-19.0,57.0,2824,3153,671,
48,4.444999933242798,0.09499979019165039,10.526339036987586,10.798650330908366,2.5952315173671135e-38,981.0,-25.0,55.0,-54.75,0.25,-20.0625,-61.25,3.25,-3.125,144.6875,86.375,1.125,0.65771484375,0.19439697265625,0.6934814453125,-0.22064208984375,3.0,-5.0,-2.0,978.0,-20.0,58.0,3007,3174,634,
49,4.54200005531311,0.0970001220703125,10.309265376750039,10.788198899883568,2.5952315173671135e-38,995.0,-21.0,98.0,-53.25,2.25,-18.875,-61.1875,-1.5,-3.0625,150.5,86.375,1.25,0.66741943359375,0.15972900390625,0.7034912109375,-0.18487548828125,16.0,0.0,41.0,978.0,-21.0,57.0,2970,3157,613,
50,4.635999917984009,0.09399986267089844,10.638313414361951,10.785159811163842,2.5952315173671135e-38,980.0,-22.0,86.0,-53.0,3.25,-17.25,-61.125,-0.3125,-3.125,155.75,86.375,1.3125,0.67413330078125,0.1282958984375,0.711181640625,-0.15252685546875,1.0,0.0,29.0,978.0,-22.0,56.0,2966,3073,482,
51,4.723999977111816,0.08800005912780762,11.363628728335758,10.795935700063369,2.5952315173671135e-38,995.0,-35.0,86.0,-52.5625,6.0,-14.5625,-59.4375,-2.0625,-3.5,161.0,86.375,1.3125,0.67926025390625,0.09698486328125,0.71746826171875,-0.1199951171875,12.0,-6.0,-11.0,978.0,-23.0,57.0,2808,3055,404,
52,4.806999921798706,0.08299994468688965,12.048200800282656,10.8175579042952,2.5952315173671135e-38,995.0,-35.0,73.0,-53.25,4.875,-14.25,-59.4375,1.9375,-3.5,165.625,86.375,1.375,0.68292236328125,0.06927490234375,0.72149658203125,-0.0908203125,17.0,-12.0,16.0,978.0,-23.0,56.0,2708,3098,367,
53,4.890000104904175,0.08300018310546875,12.048166191745565,10.838445575255994,2.597025179401449e-38,981.0,-27.0,60.0,-51.0625,6.875,-12.25,-59.375,3.5625,-3.375,170.8125,86.4375,1.375,0.685546875,0.0382080078125,0.72467041015625,-0.05810546875,3.0,-3.0,4.0,978.0,-23.0,56.0,2640,3145,356,
54,4.978000164031982,0.08800005912780762,11.363628728335758,10.847729654605343,2.597025179401449e-38,978.0,-37.0,93.0,-50.25,5.5,-11.0625,-59.75,2.8125,-3.3125,175.375,86.4375,1.375,0.68682861328125,0.01055908203125,0.72607421875,-0.02545166015625,0.0,-13.0,38.0,978.0,-24.0,54.0,2610,3149,282,
55,5.069000005722046,0.09099984169006348,10.989030106292951,10.85026631247076,2.597025179401449e-38,1006.0,0.0,114.0,-49.6875,5.875,-10.5625,-59.4375,-1.125,-2.875,180.5,86.5625,1.4375,0.6873779296875,-0.0205078125,0.72601318359375,0.00341796875,27.0,25.0,60.0,978.0,-24.0,53.0,2593,3167,209,
56,5.1600000858306885,0.09100008010864258,10.989001315231004,10.852712997772127,2.597025179401449e-38,990.0,-22.0,53.0,-47.375,6.0,-9.75,-58.625,0.6875,-2.875,186.1875,86.5,1.4375,0.685546875,-0.05511474609375,0.72491455078125,0.03924560546875,15.0,-7.0,24.0,978.0,-25.0,52.0,2604,3032,-21,
57,5.254000186920166,0.09400010108947754,10.63828643171471,10.848876660092534,2.596307714587715e-38,1003.0,-26.0,92.0,-46.375,5.6875,-9.375,-58.375,2.25,-3.1875,191.25,86.5625,1.5,0.6827392578125,-0.0859375,0.7220458984375,0.07147216796875,13.0,-12.0,13.0,978.0,-25.0,51.0,2628,2917,-186,
58,5.348999977111816,0.09499979019165039,10.526339036987586,10.843148298407174,2.596307714587715e-38,1001.0,-26.0,72.0,-44.875,7.1875,-7.6875,-59.1875,0.5625,-3.5,197.0,86.625,1.5,0.677978515625,-0.11981201171875,0.71728515625,0.10723876953125,14.0,8.0,21.0,978.0,-26.0,51.0,2660,2860,-283,
59,5.447000026702881,0.09800004959106445,10.204076469071287,10.83165039668877,2.596307714587715e-38,1002.0,-31.0,86.0,-43.75,5.375,-8.0625,-58.8125,0.0,-3.375,202.125,86.6875,1.4375,0.67242431640625,-0.14990234375,0.7113037109375,0.13934326171875,8.0,20.0,-21.0,979.0,-25.0,49.0,2657,3072,-118,
60,5.542999982833862,0.09599995613098145,10.416671426762,10.824463320551006,2.596307714587715e-38,982.0,-42.0,67.0,-37.0625,4.5,1.25,-58.8125,-0.6875,-3.125,207.875,86.8125,1.4375,0.66473388671875,-0.18310546875,0.70294189453125,0.1746826171875,7.0,-5.0,17.0,979.0,-24.0,48.0,2674,3222,-6,
61,5.638999938964844,0.09599995613098145,10.416671426762,10.817520954114041,2.596020728662221e-38,991.0,-42.0,75.0,-35.5625,3.0625,0.375,-59.375,1.25,-3.0625,212.5,86.8125,1.4375,0.6571044921875,-0.2095947265625,0.69512939453125,0.20263671875,19.0,-16.0,32.0,979.0,-24.0,47.0,2693,3364,110,
62,5.734000205993652,0.0950002670288086,10.526286201877227,10.812695809670963,2.596020728662221e-38,997.0,-32.0,68.0,-35.5,3.5,-1.5625,-59.25,-1.5,-3.125,218.1875,86.9375,1.4375,0.64630126953125,-0.242431640625,0.68365478515625,0.23699951171875,18.0,-7.0,22.0,979.0,-24.0,46.0,2719,3492,236,
63,5.830000162124634,0.09599995613098145,10.416671426762,10.806174656612846,2.596020728662221e-38,998.0,-41.0,80.0,-35.75,2.5,-5.0625,-59.75,-1.75,-3.5,224.0,87.0,1.375,0.6336669921875,-0.27471923828125,0.67041015625,0.271240234375,19.0,-17.0,35.0,979.0,-24.0,45.0,2800,3581,363,
64,5.922000169754028,0.09200000762939453,10.869564315997886,10.807159433542916,2.596020728662221e-38,991.0,-39.0,74.0,-36.875,1.25,-5.0625,-60.125,0.625,-3.5625,229.3125,87.0625,1.3125,0.620849609375,-0.30322265625,0.656982421875,0.3016357421875,12.0,-15.0,30.0,979.0,-23.0,44.0,2818,3658,506,
65,6.014000177383423,0.09200000762939453,10.869564315997886,10.808114080947744,2.5962359681063415e-38,990.0,-31.0,58.0,-37.75,2.0625,-8.0625,-60.6875,-0.125,-3.3125,235.1875,87.125,1.3125,0.60504150390625,-0.33441162109375,0.6402587890625,0.33489990234375,18.0,-15.0,32.0,979.0,-22.0,43.0,2831,3711,620,
66,6.108000040054321,0.09399986267089844,10.638313414361951,10.805500911459234,2.5962359681063415e-38,994.0,-36.0,52.0,-39.0625,4.875,-11.5,-60.875,-1.375,-3.375,240.5,87.1875,1.25,0.58941650390625,-0.36199951171875,0.6236572265625,0.36407470703125,15.0,-14.0,10.0,979.0,-21.0,42.0,2835,3743,723,
67,6.21399998664856,0.10599994659423828,9.433967017247118,10.782104947530838,2.5962359681063415e-38,992.0,-35.0,59.0,-42.5,4.75,-11.875,-61.375,-0.6875,-3.5,247.125,87.25,1.1875,0.568359375,-0.3948974609375,0.6014404296875,0.3990478515625,16.0,4.0,16.0,979.0,-21.0,41.0,2833,3763,790,
68,6.31000018119812,0.09600019454956055,10.416645556731089,10.776544856943,2.5962359681063415e-38,992.0,-21.0,48.0,-42.25,9.375,-9.875,-61.8125,-0.5625,-3.6875,253.125,87.375,1.125,0.547607421875,-0.42388916015625,0.5792236328125,0.4300537109375,14.0,-25.0,30.0,979.0,-19.0,40.0,2816,3766,833,
69,6.403000116348267,0.09299993515014648,10.752695670007947,10.776198461066373,2.596451207550462e-38,987.0,0.0,45.0,-42.75,13.25,-7.75,-62.3125,2.0625,-3.5,258.625,87.375,1.0625,0.52728271484375,-0.4490966796875,0.557861328125,0.45733642578125,19.0,5.0,-7.0,979.0,-18.0,39.0,2710,3783,903,
70,6.494000196456909,0.09100008010864258,10.989001315231004,10.779180456168081,2.596451207550462e-38,1003.0,-37.0,56.0,-42.0,17.375,-3.75,-62.4375,-0.6875,-3.5,263.5625,87.5,1.0,0.50836181640625,-0.47100830078125,0.5374755859375,0.48046875,23.0,-19.0,17.0,979.0,-17.0,38.0,2697,3784,945,
71,6.587000131607056,0.09299993515014648,10.752695670007947,10.778806525190983,2.596451207550462e-38,990.0,-39.0,60.0,-39.0,19.25,-0.875,-63.3125,-1.0,-3.3125,269.125,87.5,0.9375,0.4853515625,-0.49462890625,0.513671875,0.50592041015625,11.0,-42.0,51.0,979.0,-16.0,38.0,2719,3747,971,
72,6.684999942779541,0.09799981117248535,10.204101294031496,10.770381543199129,2.596451207550462e-38,990.0,-16.0,45.0,-34.75,21.0625,3.5,-63.625,0.5625,-3.4375,275.9375,87.5625,0.875,0.4560546875,-0.522216796875,0.48248291015625,0.53533935546875,10.0,-13.0,27.0,979.0,-15.0,38.0,2848,3735,955,
73,6.784999847412109,0.09999990463256836,10.000009536752259,10.759027507987813,2.5968816864387024e-38,1007.0,-47.0,71.0,-30.375,19.75,5.1875,-63.9375,-3.5625,-3.875,282.125,87.625,0.8125,0.4276123046875,-0.54583740234375,0.45257568359375,0.5606689453125,27.0,-33.0,33.0,979.0,-14.0,37.0,2925,3711,904,
74,6.884000062942505,0.09900021553039551,10.100988110404419,10.749564108569945,2.5968816864387024e-38,989.0,-47.0,69.0,-27.875,20.1875,7.5625,-64.5625,0.6875,-3.5,287.8125,87.625,0.6875,0.40093994140625,-0.5657958984375,0.42425537109375,0.58233642578125,18.0,10.0,32.0,979.0,-12.0,37.0,2967,3707,737,
75,6.983999967575073,0.09999990463256836,10.000009536752259,10.738831664977925,2.5968816864387024e-38,988.0,-21.0,55.0,-24.25,19.0625,7.75,-64.8125,-0.5625,-3.3125,294.125,87.6875,0.625,0.37005615234375,-0.586669921875,0.3914794921875,0.60467529296875,15.0,-18.0,22.0,979.0,-11.0,37.0,3065,3627,525,
76,7.082000017166138,0.09800004959106445,10.204076469071287,10.73143177291482,2.5968816864387024e-38,1013.0,22.0,60.0,-21.75,15.1875,9.6875,-64.875,-0.5625,-3.25,300.5,87.6875,0.5625,0.337646484375,-0.6058349609375,0.357421875,0.62548828125,33.0,33.0,23.0,979.0,-10.0,37.0,3113,3476,421,
77,7.178000211715698,0.09600019454956055,10.416645556731089,10.727221751027969,2.595948982180848e-38,991.0,-29.0,43.0,-19.1875,13.875,10.375,-65.4375,-1.0625,-3.8125,306.875,87.6875,0.5,0.303955078125,-0.62322998046875,0.32208251953125,0.64453125,11.0,-20.0,5.0,979.0,-9.0,37.0,3165,3455,155,
78,7.273000001907349,0.09499979019165039,10.526339036987586,10.724597824768933,2.595948982180848e-38,998.0,-18.0,67.0,-20.0,11.5,10.0625,-65.3125,-2.5625,-3.875,312.6875,87.6875,0.4375,0.27294921875,-0.63720703125,0.28912353515625,0.66021728515625,18.0,-10.0,28.0,979.0,-7.0,38.0,3221,3499,117,
79,7.36299991607666,0.08999991416931152,11.11112170750251,10.729322409403853,2.595948982180848e-38,1000.0,-17.0,71.0,-18.5,10.25,9.25,-66.25,3.375,-3.625,318.5,87.6875,0.375,0.24102783203125,-0.64984130859375,0.2552490234375,0.67413330078125,20.0,-10.0,32.0,979.0,-6.0,38.0,3237,3566,109,
80,7.453999996185303,0.09100008010864258,10.989001315231004,10.732492626903838,2.595948982180848e-38,1002.0,-32.0,68.0,-18.5,8.875,9.5,-66.3125,-1.8125,-3.5625,324.9375,87.625,0.3125,0.2081298828125,-0.66058349609375,0.220947265625,0.68780517578125,0.0,-24.0,-11.0,979.0,-5.0,39.0,3241,3551,236,
81,7.544999837875366,0.09099984169006348,10.989030106292951,10.735586711796298,2.5957337427367275e-38,981.0,-14.0,61.0,-19.25,7.6875,9.75,-66.25,4.0625,-3.75,330.75,87.5625,0.25,0.1707763671875,-0.670654296875,0.181884765625,0.69854736328125,2.0,-9.0,20.0,979.0,-5.0,41.0,3197,3525,284,
82,7.634999990463257,0.09000015258789062,11.111092273131861,10.740013110992109,2.5957337427367275e-38,1001.0,-14.0,54.0,-19.6875,6.6875,8.375,-66.8125,0.5,-3.9375,336.625,87.5625,0.25,0.1368408203125,-0.67840576171875,0.1458740234375,0.70697021484375,21.0,-10.0,12.0,979.0,-4.0,41.0,3168,3444,248,
Index,Time,Difference,Hz,AveHz,Pressure,Acceleration-X,Acceleration-Y,Acceleration-Z,Magnetic-X,Magnetic-Y,Magnetic-Z,Angular-Vel-X,Angular-Vel-Y,Angular-Vel-Z,Heading,Roll,Pitch,Quaternion-X,Quaternion-Y,Quaternion-Z,Quaternion-W,Linear-Acceleration-X,Linear-Acceleration-Y,Linear-Acceleration-Z,Gravity-X,Gravity-Y,Gravity-Z,Position-X,Position-Y,Position-Z
0,0.0,0.0,0,0,2.5975991512524367e-38,989.0,-28.0,55.0,-20.1875,6.6875,13.0625,-67.125,4.0625,-3.6875,327.6875,87.5,0.375,-0.1873779296875,0.6661376953125,-0.20050048828125,-0.6934814453125,14.0,-6.0,32.0,979.0,-7.0,41.0,3214,3268,313,
1,0.0989997386932373,0.0989997386932373,10.101036762315315,10.101036762315315,2.5975991512524367e-38,981.0,-24.0,75.0,-20.875,4.6875,13.0625,-68.0625,2.0,-4.0625,334.375,87.5,0.3125,-0.149658203125,0.67559814453125,-0.16009521484375,-0.7039794921875,4.0,-12.0,34.0,979.0,-5.0,41.0,3180,3287,278,
2,0.19300007820129395,0.09400033950805664,10.638259449204345,10.362690101679924,2.5960924751435946e-38,993.0,-15.0,68.0,-22.0,3.75,14.5625,-68.125,-1.8125,-3.9375,341.0,87.5,0.1875,-0.11114501953125,0.682861328125,-0.1190185546875,-0.712158203125,13.0,-11.0,27.0,979.0,-4.0,41.0,3205,3296,263,
3,0.2840001583099365,0.09100008010864258,10.989001315231004,10.563374393355177,2.5960924751435946e-38,999.0,-23.0,65.0,-22.375,3.0625,13.375,-67.875,-0.5625,-3.625,346.9375,87.375,0.1875,-0.07562255859375,0.6868896484375,-0.08203125,-0.7181396484375,20.0,-19.0,21.0,979.0,-3.0,44.0,3266,3276,291,
4,0.37399983406066895,0.08999967575073242,11.111151142029108,10.695191911104255,2.5960924751435946e-38,1005.0,16.0,54.0,-24.5625,1.875,13.75,-67.9375,-1.3125,-3.875,353.5625,87.375,0.1875,-0.03631591796875,0.69012451171875,-0.0404052734375,-0.7216796875,26.0,0.0,37.0,979.0,-3.0,44.0,3314,3252,310,
5,0.4609999656677246,0.08700013160705566,11.494235485948398,10.8459877925541,2.5960924751435946e-38,981.0,-5.0,54.0,-26.0625,-1.875,13.75,-68.0,1.5,-4.125,358.1875,87.3125,0.125,-0.0086669921875,0.69049072265625,-0.01116943359375,-0.72320556640625,10.0,-47.0,55.0,979.0,-2.0,45.0,3355,3256,311,
6,0.5509998798370361,0.08999991416931152,11.11112170750251,10.889294570762088,2.5960924751435946e-38,980.0,-45.0,86.0,-26.5,-4.0625,13.375,-68.1875,-0.625,-4.125,4.8125,87.1875,0.125,0.03094482421875,0.68902587890625,0.03057861328125,-0.723388671875,1.0,-43.0,39.0,979.0,-2.0,47.0,3347,3248,316,
7,0.6419999599456787,0.09100008010864258,10.989001315231004,10.903427471541102,2.595661996255354e-38,987.0,-9.0,77.0,-28.6875,-6.6875,13.0,-67.5,-0.5,-3.75,10.75,87.125,0.125,0.06640625,0.68609619140625,0.06793212890625,-0.72125244140625,8.0,-6.0,28.0,979.0,-2.0,48.0,3299,3207,307,
8,0.7330000400543213,0.09100008010864258,10.989001315231004,10.914051245354823,2.595661996255354e-38,991.0,9.0,92.0,-29.0625,-8.1875,12.5625,-67.8125,-0.6875,-3.875,16.6875,87.0625,0.0625,0.1014404296875,0.681396484375,0.105224609375,-0.7171630859375,12.0,11.0,43.0,979.0,-2.0,49.0,3270,3197,295,
9,0.8240001201629639,0.09100008010864258,10.989001315231004,10.922328504296887,2.595661996255354e-38,981.0,-22.0,68.0,-30.5,-8.5625,11.875,-67.9375,2.5625,-3.625,22.5625,86.9375,0.125,0.14031982421875,0.67364501953125,0.1461181640625,-0.71075439453125,6.0,2.0,44.0,979.0,-2.0,52.0,3266,3209,322,
10,0.9129998683929443,0.08899974822998047,11.235986841400297,10.95290409800598,2.595661996255354e-38,989.0,-29.0,65.0,-31.5625,-12.1875,11.5,-67.625,1.6875,-3.8125,28.375,86.875,0.1875,0.17498779296875,0.6650390625,0.1822509765625,-0.7027587890625,11.0,-19.0,26.0,979.0,-3.0,53.0,3264,3261,393,
11,0.998999834060669,0.08599996566772461,11.627911618751906,11.011012840000104,2.5952315173671135e-38,1011.0,41.0,107.0,-32.25,-14.75,9.1875,-67.5625,1.1875,-3.625,33.5625,86.8125,0.1875,0.2015380859375,0.65716552734375,0.21002197265625,-0.69525146484375,9.0,7.0,6.0,979.0,-4.0,53.0,3232,3311,494,
12,1.0820000171661377,0.08300018310546875,12.048166191745565,11.090572836984935,2.5952315173671135e-38,994.0,-23.0,63.0,-33.0625,-16.25,7.5625,-66.875,-2.3125,-4.1875,39.5,86.8125,0.1875,0.2347412109375,0.6461181640625,0.24554443359375,-0.6834716796875,15.0,-19.0,9.0,979.0,-3.0,53.0,3285,3204,347,
13,1.1689999103546143,0.08699989318847656,11.494266985289281,11.120616763825474,2.5952315173671135e-38,994.0,1.0,102.0,-34.5,-18.5,6.5,-67.375,3.0625,-3.9375,45.375,86.6875,0.1875,0.267333984375,0.632568359375,0.280517578125,-0.67059326171875,15.0,5.0,30.0,979.0,-3.0,54.0,3297,3115,236,
14,1.2609999179840088,0.09200000762939453,10.869564315997886,11.102300484192053,2.5952315173671135e-38,995.0,-18.0,64.0,-35.0,-19.875,4.1875,-67.3125,3.0,-3.4375,51.1875,86.6875,0.25,0.2994384765625,0.61785888671875,0.31414794921875,-0.65570068359375,16.0,-13.0,8.0,979.0,-4.0,56.0,3318,3040,193,
15,1.3529999256134033,0.09200000762939453,10.869564315997886,11.086475110632042,2.5952315173671135e-38,997.0,-25.0,61.0,-36.5,-22.875,1.0625,-66.125,-3.875,-3.4375,56.9375,86.625,0.3125,0.330810546875,0.60125732421875,0.34674072265625,-0.63934326171875,18.0,-19.0,4.0,978.0,-5.0,56.0,3299,2977,156,
16,1.4449999332427979,0.09200000762939453,10.869564315997886,11.072664871404932,2.5952315173671135e-38,998.0,-24.0,95.0,-37.5625,-23.1875,-1.875,-66.75,1.6875,-3.4375,62.6875,86.5625,0.375,0.36102294921875,0.5831298828125,0.378662109375,-0.6214599609375,19.0,-17.0,37.0,978.0,-7.0,58.0,3272,2955,133,
17,1.5360000133514404,0.09100008010864258,10.989001315231004,11.067708237129006,2.5952315173671135e-38,997.0,-16.0,73.0,-37.25,-24.0,-7.0,-66.125,-2.25,-3.875,69.0625,86.4375,0.4375,0.3900146484375,0.56353759765625,0.40948486328125,-0.6021728515625,10.0,-30.0,11.0,978.0,-8.0,59.0,3248,2962,160,
18,1.626999855041504,0.09099984169006348,10.989030106292951,11.063307685138565,2.5952315173671135e-38,985.0,0.0,120.0,-39.0625,-23.25,-8.0625,-66.1875,3.0625,-3.9375,74.75,86.375,0.5,0.42071533203125,0.5401611328125,0.4427490234375,-0.5789794921875,7.0,9.0,59.0,978.0,-8.0,61.0,3205,2992,193,
19,1.7179999351501465,0.09100008010864258,10.989001315231004,11.059371779510268,2.595446756811234e-38,1005.0,-19.0,59.0,-39.75,-23.75,-11.1875,-65.25,-2.6875,-3.75,80.4375,86.5,0.5625,0.44805908203125,0.51898193359375,0.47015380859375,-0.5557861328125,26.0,-9.0,1.0,978.0,-9.0,58.0,3197,3101,213,
20,1.809000015258789,0.09100008010864258,10.989001315231004,11.055831858099168,2.595446756811234e-38,993.0,-4.0,83.0,-40.1875,-21.6875,-14.5625,-65.1875,-0.3125,-3.25,86.0625,86.4375,0.625,0.47332763671875,0.4954833984375,0.497314453125,-0.53216552734375,14.0,5.0,23.0,978.0,-10.0,59.0,3253,3199,198,
21,1.8989999294281006,0.08999991416931152,11.11112170750251,11.058452227707203,2.595446756811234e-38,994.0,-21.0,86.0,-41.1875,-21.25,-17.6875,-65.0,-3.1875,-3.375,91.6875,86.375,0.6875,0.49761962890625,0.4710693359375,0.522705078125,-0.5072021484375,15.0,-9.0,26.0,978.0,-12.0,59.0,3088,3191,204,
22,1.9880001544952393,0.08900022506713867,11.23592664227124,11.066397530329107,2.595446756811234e-38,992.0,-15.0,92.0,-43.0625,-18.0625,-19.6875,-64.375,-2.375,-3.6875,97.25,86.3125,0.75,0.5201416015625,0.4451904296875,0.54718017578125,-0.48150634765625,13.0,-1.0,31.0,978.0,-13.0,61.0,2959,3225,148,
23,2.0779998302459717,0.08999967575073242,11.111151142029108,11.068335841623963,2.5957337427367275e-38,1001.0,-19.0,74.0,-44.1875,-16.875,-21.375,-64.0,-2.1875,-3.75,102.8125,86.3125,0.8125,0.541748046875,0.4190673828125,0.5697021484375,-0.45428466796875,22.0,-4.0,14.0,978.0,-14.0,60.0,2875,3293,68,
24,2.1689999103546143,0.09100008010864258,10.989001315231004,11.065007372949218,2.5957337427367275e-38,995.0,-20.0,97.0,-44.1875,-13.375,-22.1875,-63.8125,-0.75,-3.875,108.375,86.3125,0.8125,0.56146240234375,0.39190673828125,0.59124755859375,-0.4261474609375,17.0,-5.0,36.0,978.0,-14.0,61.0,2871,3202,208,
25,2.256999969482422,0.08800005912780762,11.363628728335758,11.076650570683451,2.5957337427367275e-38,981.0,-38.0,95.0,-46.0625,-10.6875,-23.5,-63.875,1.625,-3.5625,113.875,86.25,0.875,0.5799560546875,0.36395263671875,0.6109619140625,-0.3973388671875,3.0,-22.0,34.0,978.0,-15.0,61.0,2852,3188,358,
26,2.3549997806549072,0.09799981117248535,10.204101294031496,11.040340731059262,2.5957337427367275e-38,987.0,-42.0,45.0,-46.0625,-8.0625,-23.5625,-62.3125,-2.3125,-3.5625,119.9375,86.3125,0.9375,0.59698486328125,0.3353271484375,0.62921142578125,-0.3643798828125,14.0,2.0,42.0,978.0,-16.0,61.0,2857,3178,472,
27,2.44599986076355,0.09100008010864258,10.989001315231004,11.038430718295956,2.5957337427367275e-38,986.0,-31.0,77.0,-46.6875,-4.75,-22.0,-62.4375,0.625,-3.5625,125.375,86.375,1.0,0.6146240234375,0.30322265625,0.64715576171875,-0.33392333984375,7.0,-13.0,18.0,978.0,-17.0,59.0,2868,3149,555,
28,2.5379998683929443,0.09200000762939453,10.869564315997886,11.032309476725677,2.59745565828969e-38,998.0,-31.0,102.0,-47.375,-3.5,-21.1875,-61.625,-2.625,-3.625,130.75,86.3125,1.0625,0.6285400390625,0.27337646484375,0.662109375,-0.30303955078125,19.0,-12.0,42.0,978.0,-18.0,59.0,2870,3145,597,
29,2.631999969482422,0.09400010108947754,10.63828643171471,11.018237209821397,2.59745565828969e-38,984.0,-25.0,92.0,-47.375,-2.0,-20.875,-62.125,3.375,-3.5625,136.1875,86.3125,1.125,0.6407470703125,0.24310302734375,0.6756591796875,-0.271728515625,5.0,-6.0,33.0,978.0,-19.0,59.0,2786,3163,686,
30,2.7229998111724854,0.09099984169006348,10.989030106292951,11.017261138583194,2.59745565828969e-38,989.0,-30.0,56.0,-47.0625,0.6875,-19.75,-61.125,-0.625,-3.5,141.5,86.375,1.125,0.65179443359375,0.212646484375,0.68731689453125,-0.2398681640625,10.0,-10.0,-2.0,978.0,-19.0,58.0,2990,3204,655,
31,2.813999891281128,0.09100008010864258,10.989001315231004,11.016347262858867,2.59745565828969e-38,997.0,-30.0,80.0,-48.1875,1.5625,-18.1875,-61.1875,0.9375,-3.125,147.375,86.3125,1.1875,0.6612548828125,0.18170166015625,0.697509765625,-0.2078857421875,14.0,-20.0,16.0,978.0,-21.0,58.0,2966,3161,598,
32,2.9049999713897705,0.09100008010864258,10.989001315231004,11.01549064205016,2.5960924751435946e-38,1004.0,-29.0,85.0,-47.0625,4.25,-16.6875,-60.25,-1.875,-3.1875,152.625,86.3125,1.25,0.66986083984375,0.14703369140625,0.70709228515625,-0.172119140625,25.0,-7.0,27.0,978.0,-22.0,58.0,2904,3090,496,
33,2.996000051498413,0.09100008010864258,10.989001315231004,11.014686058999049,2.5960924751435946e-38,981.0,-34.0,108.0,-47.375,5.5,-15.0,-60.5,2.6875,-3.375,157.8125,86.3125,1.3125,0.67578125,0.11566162109375,0.71441650390625,-0.13970947265625,3.0,-11.0,49.0,978.0,-23.0,58.0,2772,3109,448,
34,3.0869998931884766,0.09099984169006348,10.989030106292951,11.013929762363011,2.5960924751435946e-38,992.0,-23.0,58.0,-45.5625,4.875,-14.0,-59.375,0.4375,-3.625,163.0625,86.3125,1.375,0.6806640625,0.08453369140625,0.71978759765625,-0.10711669921875,13.0,0.0,0.0,978.0,-23.0,57.0,2675,3141,390,
35,3.177999973297119,0.09100008010864258,10.989001315231004,11.013215951568469,2.5960924751435946e-38,993.0,-30.0,84.0,-44.5,5.6875,-12.25,-59.3125,-0.1875,-3.375,168.25,86.375,1.375,0.6842041015625,0.0533447265625,0.7235107421875,-0.07440185546875,14.0,-6.0,27.0,978.0,-24.0,56.0,2618,3153,338,
36,3.2690000534057617,0.09100008010864258,10.989001315231004,11.012541881880335,2.5953750103298603e-38,983.0,-30.0,77.0,-43.6875,6.875,-11.875,-59.3125,0.875,-3.1875,173.4375,86.375,1.375,0.68609619140625,0.0220947265625,0.72601318359375,-0.0416259765625,4.0,-5.0,21.0,978.0,-24.0,56.0,2586,3153,247,
37,3.36299991607666,0.09399986267089844,10.638313414361951,11.002081749429511,2.5953750103298603e-38,988.0,-37.0,71.0,-41.875,5.5,-11.0625,-59.3125,-0.4375,-3.1875,178.5625,86.4375,1.4375,0.68682861328125,-0.00909423828125,0.7266845703125,-0.0089111328125,9.0,-12.0,16.0,978.0,-25.0,55.0,2585,3207,244,
38,3.4509997367858887,0.08799982070922852,11.363659515900926,11.01130191200523,2.5953750103298603e-38,993.0,-26.0,73.0,-40.0625,6.6875,-7.75,-58.9375,0.1875,-3.0625,183.125,86.4375,1.4375,0.686279296875,-0.03680419921875,0.72613525390625,0.02001953125,15.0,0.0,19.0,978.0,-25.0,54.0,2610,3128,100,
39,3.5450000762939453,0.09400033950805664,10.638259449204345,11.001410200467987,2.5953750103298603e-38,995.0,-35.0,80.0,-38.875,6.5,-7.875,-59.0625,-0.3125,-3.3125,188.8125,86.5625,1.5,0.683837890625,-0.07464599609375,0.72332763671875,0.05975341796875,15.0,-9.0,26.0,978.0,-25.0,52.0,2638,3021,-78,
40,3.6469998359680176,0.10199975967407227,9.803944668059783,10.967919330707307,2.5960924751435946e-38,992.0,-36.0,78.0,-37.375,6.0625,-8.0625,-59.25,-0.125,-3.5625,194.5625,86.625,1.4375,0.68035888671875,-0.10540771484375,0.7193603515625,0.09228515625,13.0,-10.0,27.0,979.0,-25.0,50.0,2650,3135,5,
41,3.744999885559082,0.09800004959106445,10.204076469071287,10.947930908649202,2.5960924751435946e-38,993.0,-29.0,80.0,-36.375,6.0625,-8.0,-59.3125,0.625,-3.5,200.375,86.6875,1.4375,0.67462158203125,-0.1392822265625,0.71343994140625,0.1282958984375,14.0,-4.0,30.0,979.0,-25.0,49.0,2652,3254,87,
42,3.8389997482299805,0.09399986267089844,10.638313414361951,10.940349766723646,2.5960924751435946e-38,990.0,-29.0,63.0,-36.375,6.0625,-8.875,-59.5,0.0625,-3.25,205.5625,86.8125,1.4375,0.668212890625,-0.169677734375,0.70635986328125,0.16046142578125,10.0,-4.0,14.0,979.0,-24.0,48.0,2678,3342,166,
43,3.924999952316284,0.08600020408630371,11.627879382663684,10.955414145833084,2.5960924751435946e-38,996.0,-37.0,62.0,-35.6875,7.1875,-9.5,-59.875,0.375,-3.25,211.375,86.875,1.375,0.65924072265625,-0.20318603515625,0.69696044921875,0.1959228515625,16.0,-5.0,22.0,979.0,-24.0,47.0,2702,3445,271,
44,4.009999990463257,0.08500003814697266,11.764700602497504,10.97256860464902,2.59494453144162e-38,989.0,-31.0,63.0,-34.1875,8.1875,-10.1875,-59.5625,-1.4375,-3.4375,216.0,86.875,1.375,0.65069580078125,-0.2298583984375,0.68817138671875,0.2239990234375,15.0,-7.0,5.0,979.0,-24.0,46.0,2747,3548,377,
45,4.0929999351501465,0.08299994468688965,12.048200800282656,10.994380824085997,2.59494453144162e-38,995.0,-24.0,68.0,-36.0,7.5625,-12.1875,-60.5625,0.625,-3.4375,220.75,87.0,1.375,0.64129638671875,-0.25616455078125,0.677978515625,0.25189208984375,16.0,0.0,23.0,979.0,-23.0,45.0,2825,3612,466,
46,4.181999921798706,0.08899998664855957,11.235956741755135,10.999521965609002,2.59494453144162e-38,994.0,-29.0,62.0,-37.875,8.375,-12.1875,-60.625,0.9375,-3.5625,226.0625,87.0625,1.3125,0.62921142578125,-0.28533935546875,0.66522216796875,0.28314208984375,15.0,-6.0,18.0,979.0,-22.0,44.0,2834,3667,585,
47,4.2799999713897705,0.09800004959106445,10.204076469071287,10.981308484620971,2.59494453144162e-38,990.0,-21.0,53.0,-37.1875,12.25,-12.1875,-61.3125,-0.4375,-3.5,232.0625,87.125,1.25,0.6142578125,-0.3173828125,0.64910888671875,0.31719970703125,15.0,-8.0,20.0,979.0,-21.0,43.0,2838,3705,669,
48,4.378000020980835,0.09800004959106445,10.204076469071287,10.963910408855186,2.5960924751435946e-38,991.0,-26.0,68.0,-40.5,14.375,-11.0,-61.6875,0.625,-3.4375,238.0625,87.1875,1.1875,0.59735107421875,-0.34881591796875,0.63128662109375,0.3507080078125,10.0,-17.0,33.0,979.0,-21.0,42.0,2838,3718,751,
49,4.4700000286102295,0.09200000762939453,10.869564315997886,10.96196860992742,2.5960924751435946e-38,997.0,-15.0,45.0,-42.5625,17.6875,-9.0625,-62.0,-0.5625,-3.375,243.5,87.25,1.1875,0.58062744140625,-0.3765869140625,0.61370849609375,0.38006591796875,13.0,-15.0,23.0,979.0,-20.0,41.0,2837,3753,809,
50,4.559999942779541,0.08999991416931152,11.11112170750251,10.964912418293272,2.5960924751435946e-38,992.0,-36.0,51.0,-43.6875,19.6875,-5.25,-62.375,0.25,-3.625,248.375,87.3125,1.125,0.56451416015625,-0.400634765625,0.5968017578125,0.40576171875,8.0,-28.0,18.0,979.0,-19.0,40.0,2833,3747,815,
51,4.648999929428101,0.08899998664855957,11.235956741755135,10.970101263536435,2.5960924751435946e-38,992.0,3.0,54.0,-44.0625,20.1875,0.5,-62.4375,0.3125,-3.75,253.9375,87.375,1.0625,0.544921875,-0.427001953125,0.57647705078125,0.43402099609375,12.0,22.0,13.0,979.0,-18.0,40.0,2705,3791,885,
52,4.736999988555908,0.08800005912780762,11.363628728335758,10.977411890569243,2.597312165326943e-38,984.0,-33.0,39.0,-43.0,19.75,3.1875,-63.1875,-1.5625,-3.625,259.5,87.5,1.0,0.52471923828125,-0.4527587890625,0.5540771484375,0.461181640625,5.0,-16.0,1.0,979.0,-17.0,38.0,2671,3786,917,
53,4.828000068664551,0.09100008010864258,10.989001315231004,10.977630332689715,2.597312165326943e-38,989.0,-58.0,85.0,-41.0625,19.25,7.0625,-64.1875,-0.8125,-3.375,265.75,87.5,0.9375,0.499755859375,-0.4801025390625,0.52825927734375,0.4906005859375,17.0,-3.0,24.0,979.0,-16.0,38.0,2707,3747,957,
54,4.922999858856201,0.09499979019165039,10.526339036987586,10.96892170387879,2.597312165326943e-38,991.0,-19.0,46.0,-35.875,19.0625,9.75,-64.125,-2.3125,-3.4375,271.375,87.5625,0.875,0.47601318359375,-0.5037841796875,0.50347900390625,0.515869140625,11.0,-3.0,7.0,979.0,-15.0,38.0,2841,3710,922,
55,5.019999980926514,0.0970001220703125,10.309265376750039,10.956175340432761,2.597312165326943e-38,988.0,-13.0,51.0,-32.5625,16.75,12.875,-64.4375,0.9375,-3.5625,277.625,87.5625,0.8125,0.44805908203125,-0.5286865234375,0.4744873046875,0.54278564453125,26.0,-19.0,31.0,979.0,-14.0,38.0,2946,3686,828,
56,5.110999822616577,0.09099984169006348,10.989030106292951,10.956760309831274,2.5968816864387024e-38,984.0,-27.0,41.0,-28.875,15.375,14.5,-64.875,-0.5625,-3.875,282.75,87.5625,0.75,0.4249267578125,-0.547607421875,0.4498291015625,0.563232421875,4.0,-14.0,3.0,979.0,-13.0,38.0,2992,3680,703,
57,5.204999923706055,0.09400010108947754,10.63828643171471,10.95100880605104,2.5968816864387024e-38,991.0,-24.0,57.0,-25.1875,14.1875,15.5625,-64.9375,-0.1875,-3.5,289.125,87.625,0.6875,0.39447021484375,-0.56982421875,0.41778564453125,0.5875244140625,11.0,-12.0,18.0,979.0,-12.0,38.0,3081,3606,524,
58,5.296000003814697,0.09100008010864258,10.989001315231004,10.951661623531482,2.5968816864387024e-38,992.0,-52.0,88.0,-21.875,14.25,15.6875,-66.0,-0.625,-3.3125,294.875,87.625,0.625,0.36578369140625,-0.5887451171875,0.3876953125,0.607666015625,12.0,-40.0,50.0,979.0,-11.0,38.0,3126,3472,468,
59,5.389999866485596,0.09399986267089844,10.638313414361951,10.946196931628007,2.5968816864387024e-38,1007.0,-8.0,79.0,-20.0625,10.875,15.25,-65.9375,-2.125,-3.625,301.3125,87.625,0.625,0.33258056640625,-0.60797119140625,0.3568115234375,0.62847900390625,8.0,-28.0,28.0,979.0,-11.0,39.0,3166,3449,166,
60,5.483999967575073,0.09400010108947754,10.63828643171471,10.94091910188886,2.5968816864387024e-38,1007.0,-16.0,120.0,-19.0,10.5,14.5,-66.6875,3.25,-3.625,307.125,87.5625,0.5625,0.30181884765625,-0.62347412109375,0.32080078125,0.64599609375,28.0,-6.0,80.0,979.0,-9.0,39.0,3216,3491,79,
61,5.580000162124634,0.09600019454956055,10.416645556731089,10.931899323955166,2.596953432920076e-38,997.0,-17.0,82.0,-19.0625,8.75,14.0,-66.8125,0.25,-3.75,313.6875,87.6875,0.4375,0.26708984375,-0.63946533203125,0.2833251953125,0.66290283203125,17.0,-9.0,44.0,979.0,-8.0,38.0,3232,3593,21,
62,5.677000045776367,0.0969998836517334,10.309290716166029,10.921261141459281,2.596953432920076e-38,988.0,-26.0,50.0,-19.375,7.5625,13.5625,-66.6875,0.8125,-3.8125,319.5625,87.5625,0.375,0.23443603515625,-0.65142822265625,0.249267578125,0.67718505859375,8.0,-19.0,10.0,979.0,-7.0,40.0,3177,3560,157,
63,5.76800012588501,0.09100008010864258,10.989001315231004,10.92232985871054,2.596953432920076e-38,999.0,-29.0,75.0,-19.75,6.25,13.1875,-67.1875,-1.0625,-3.875,325.4375,87.5,0.375,0.2010498046875,-0.6622314453125,0.21435546875,0.689208984375,19.0,-22.0,34.0,979.0,-6.0,41.0,3145,3531,221,
64,5.858999967575073,0.09099984169006348,10.989030106292951,10.923365822527622,2.596953432920076e-38,996.0,-19.0,36.0,-20.5625,5.5,14.375,-67.0,-2.1875,-4.1875,332.0,87.5,0.3125,0.1671142578125,-0.6710205078125,0.1787109375,0.69989013671875,19.0,-12.0,24.0,979.0,-5.0,42.0,3139,3461,228,
65,5.949999809265137,0.09099984169006348,10.989030106292951,10.92437009809382,2.596809939957329e-38,993.0,-21.0,83.0,-21.5625,4.0,13.875,-67.25,-0.1875,-3.75,337.9375,87.375,0.25,0.12890625,-0.678955078125,0.13824462890625,0.70947265625,13.0,-16.0,39.0,979.0,-4.0,43.0,3154,3385,231,
66,6.040999889373779,0.09100008010864258,10.989001315231004,10.92534368624888,2.596809939957329e-38,980.0,-33.0,97.0,-22.0,1.25,12.6875,-67.75,0.875,-3.5625,343.8125,87.375,0.1875,0.093994140625,-0.68450927734375,0.1014404296875,0.71575927734375,0.0,-29.0,53.0,979.0,-4.0,44.0,3243,3303,259,
67,6.131999969482422,0.09100008010864258,10.989001315231004,10.926288377926266,2.596809939957329e-38,987.0,-16.0,63.0,-23.5,1.1875,13.0625,-67.6875,4.125,-3.625,349.75,87.25,0.25,0.0584716796875,-0.687744140625,0.064453125,0.72076416015625,8.0,-11.0,16.0,979.0,-4.0,46.0,3304,3245,296,
68,6.222999811172485,0.09099984169006348,10.989030106292951,10.927205859449964,2.596809939957329e-38,1003.0,15.0,49.0,-25.375,-1.75,14.6875,-67.25,-0.3125,-3.75,355.6875,87.25,0.1875,0.023193359375,-0.68975830078125,0.0269775390625,0.72314453125,23.0,19.0,2.0,979.0,-3.0,46.0,3361,3203,307,
69,6.313999891281128,0.09100008010864258,10.989001315231004,10.928096482117567,2.596953432920076e-38,994.0,-33.0,59.0,-26.0625,-1.75,13.0625,-67.8125,-0.1875,-4.125,1.625,87.125,0.1875,-0.01263427734375,-0.68914794921875,-0.01043701171875,0.72442626953125,15.0,-30.0,10.0,979.0,-3.0,48.0,3370,3184,291,
70,6.4049999713897705,0.09100008010864258,10.989001315231004,10.928961797452008,2.596953432920076e-38,980.0,-45.0,64.0,-27.5625,-5.5625,13.5,-68.3125,0.9375,-4.0,7.5625,87.0625,0.1875,-0.04815673828125,-0.6871337890625,-0.04791259765625,0.72332763671875,1.0,-41.0,14.0,979.0,-3.0,50.0,3331,3153,293,
71,6.496000051498413,0.09100008010864258,10.989001315231004,10.929802869016703,2.596953432920076e-38,991.0,4.0,71.0,-29.0625,-7.75,12.25,-67.8125,-0.25,-3.6875,13.4375,87.0,0.1875,-0.08331298828125,-0.68359375,-0.085205078125,0.7200927734375,11.0,7.0,20.0,979.0,-3.0,50.0,3298,3134,287,
72,6.585000038146973,0.08899998664855957,11.235956741755135,10.933940711147041,2.596953432920076e-38,978.0,-29.0,65.0,-29.75,-9.5625,11.875,-67.3125,-0.1875,-3.6875,19.375,86.9375,0.1875,-0.11846923828125,-0.67779541015625,-0.12213134765625,0.71533203125,-1.0,-25.0,13.0,979.0,-3.0,52.0,3291,3132,276,
73,6.674999952316284,0.08999991416931152,11.11112170750251,10.93632966614005,2.5952315173671135e-38,996.0,-22.0,81.0,-30.5625,-11.5,11.5,-67.5625,0.9375,-3.9375,25.1875,86.875,0.25,-0.15338134765625,-0.67034912109375,-0.15850830078125,0.70849609375,17.0,-17.0,28.0,979.0,-4.0,53.0,3272,3182,321,
74,6.763999938964844,0.08899998664855957,11.235956741755135,10.940272127105443,2.5952315173671135e-38,1000.0,-4.0,87.0,-32.75,-14.0,10.0,-67.375,1.0625,-3.9375,31.0625,86.8125,0.25,-0.1876220703125,-0.6612548828125,-0.194580078125,0.69976806640625,21.0,0.0,33.0,979.0,-5.0,54.0,3252,3261,426,
75,6.849999904632568,0.08599996566772461,11.627911618751906,10.948905261922478,2.5952315173671135e-38,989.0,21.0,102.0,-34.25,-15.75,5.6875,-67.1875,1.875,-4.125,36.9375,86.75,0.25,-0.22100830078125,-0.65032958984375,-0.23040771484375,0.68927001953125,10.0,26.0,46.0,979.0,-4.0,55.0,3332,3182,291,
76,6.936000108718872,0.08600020408630371,11.627879382663684,10.957323934361606,2.5952315173671135e-38,985.0,-37.0,80.0,-33.875,-17.375,7.75,-66.875,-0.5,-4.3125,42.125,86.8125,0.25,-0.25030517578125,-0.64013671875,-0.26129150390625,0.677734375,6.0,-32.0,26.0,979.0,-4.0,54.0,3345,3093,177,
77,7.021999835968018,0.08599972724914551,11.627943855018865,10.965537140230532,2.5965947005132087e-38,983.0,-10.0,81.0,-34.5625,-19.1875,4.25,-66.75,-0.5,-3.625,47.9375,86.6875,0.3125,-0.28253173828125,-0.625732421875,-0.2955322265625,0.664306640625,4.0,-4.0,25.0,979.0,-5.0,56.0,3341,3026,101,
78,7.105000019073486,0.08300018310546875,12.048166191745565,10.978184347728044,2.5965947005132087e-38,994.0,-20.0,81.0,-35.75,-21.375,2.0,-66.375,-1.8125,-3.3125,53.0,86.5625,0.375,-0.31060791015625,-0.61175537109375,-0.324951171875,0.65093994140625,15.0,-13.0,24.0,978.0,-6.0,57.0,3342,2976,56,
79,7.186999797821045,0.0819997787475586,12.195154856192504,10.992069322716723,2.5965947005132087e-38,992.0,-7.0,106.0,-35.375,-23.1875,-1.5,-65.75,0.0,-3.75,58.75,86.4375,0.4375,-0.34112548828125,-0.5943603515625,-0.3572998046875,0.63458251953125,13.0,-256.0,51.0,978.0,-8.0,59.0,3283,2929,65,
80,7.269999980926514,0.08300018310546875,12.048166191745565,11.004126576325593,2.5965947005132087e-38,993.0,-24.0,78.0,-37.25,-23.1875,-3.25,-65.75,0.25,-3.9375,63.8125,86.5,0.5,-0.36767578125,-0.57867431640625,-0.3848876953125,0.617919921875,14.0,-15.0,19.0,978.0,-8.0,58.0,3268,2927,76,
81,7.352999925613403,0.08299994468688965,12.048200800282656,11.01591198414745,2.5965947005132087e-38,1000.0,-12.0,88.0,-37.25,-24.0625,-8.0,-65.6875,3.625,-3.5625,68.875,86.4375,0.5,-0.3929443359375,-0.56121826171875,-0.4119873046875,0.60076904296875,16.0,-9.0,16.0,978.0,-9.0,60.0,3226,2954,123,
82,7.436000108718872,0.08300018310546875,12.048166191745565,11.027433943129346,2.5960924751435946e-38,974.0,-17.0,113.0,-38.0625,-24.0625,-8.25,-64.5,-0.375,-3.9375,73.875,86.3125,0.5625,-0.41717529296875,-0.5428466796875,-0.43829345703125,0.5823974609375,-3.0,-7.0,51.0,978.0,-9.0,61.0,3193,3016,171,
83,7.518999814987183,0.08299970626831055,12.048235409018574,11.038702226665967,2.5960924751435946e-38,998.0,-33.0,98.0,-39.0625,-22.25,-11.875,-65.4375,0.75,-3.375,79.5,86.4375,0.625,-0.4442138671875,-0.52203369140625,-0.46563720703125,0.55975341796875,21.0,1.0,5.0,978.0,-10.0,59.0,3214,3145,179,
84,7.610999822616577,0.09200000762939453,10.869564315997886,11.036657726674566,2.5960924751435946e-38,992.0,-5.0,80.0,-40.1875,-22.6875,-14.5,-64.0,-1.125,-3.25,85.0625,86.4375,0.6875,-0.46942138671875,-0.49920654296875,-0.49249267578125,0.53656005859375,13.0,6.0,20.0,978.0,-11.0,59.0,3283,3250,192,
85,7.694000005722046,0.08300018310546875,12.048166191745565,11.047569526486262,2.5960924751435946e-38,998.0,-28.0,78.0,-42.0625,-20.5,-17.5625,-63.625,-4.125,-3.4375,89.9375,86.3125,0.75,-0.49072265625,-0.47772216796875,-0.51513671875,0.51531982421875,19.0,-15.0,17.0,978.0,-13.0,60.0,3117,3244,204,
86,7.7769999504089355,0.08299994468688965,12.048200800282656,11.058248752525438,2.595805489218101e-38,986.0,-32.0,94.0,-41.6875,-18.25,-17.5625,-63.375,0.4375,-3.5625,95.4375,86.25,0.8125,-0.51324462890625,-0.45281982421875,-0.53955078125,0.4903564453125,7.0,-18.0,32.0,978.0,-14.0,61.0,2978,3254,178,
87,7.860000133514404,0.08300018310546875,12.048166191745565,11.068702102057104,2.595805489218101e-38,989.0,-45.0,83.0,-42.75,-16.0625,-20.875,-62.5625,-2.6875,-4.0625,100.3125,86.25,0.875,-0.5323486328125,-0.43023681640625,-0.55975341796875,0.467041015625,11.0,-30.0,22.0,978.0,-15.0,61.0,2882,3296,106,
88,7.942999839782715,0.08299970626831055,12.048235409018574,11.07893765265483,2.595805489218101e-38,991.0,-45.0,80.0,-43.1875,-15.375,-21.375,-62.1875,-1.4375,-4.0,104.5,86.25,0.875,-0.5482177734375,-0.41015625,-0.5765380859375,0.4459228515625,12.0,-30.0,18.0,978.0,-15.0,61.0,2860,3272,170,
89,8.029000043869019,0.08600020408630371,11.627879382663684,11.084817475864982,2.595805489218101e-38,978.0,-22.0,93.0,-45.0625,-12.875,-21.375,-61.6875,0.5625,-3.625,110.5,86.25,0.9375,-0.56915283203125,-0.38037109375,-0.59918212890625,0.41522216796875,0.0,-6.0,31.0,978.0,-16.0,61.0,2838,3198,313,
90,8.110999822616577,0.0819997787475586,12.195154856192504,11.096042654204664,2.595805489218101e-38,987.0,-37.0,80.0,-46.1875,-8.375,-22.5625,-61.25,-1.375,-3.5,115.25,86.3125,1.0,-0.5850830078125,-0.3563232421875,-0.615478515625,0.3897705078125,10.0,-27.0,-2.0,978.0,-17.0,60.0,2820,3171,467,
91,8.194000005722046,0.08300018310546875,12.048166191745565,11.105687080357914,2.59745565828969e-38,1003.0,-19.0,79.0,-46.1875,-8.0,-22.1875,-61.75,-2.375,-3.5,119.4375,86.3125,1.0,-0.59783935546875,-0.33447265625,-0.629150390625,0.3673095703125,24.0,-1.0,19.0,978.0,-17.0,60.0,2838,3153,561,
92,8.288000106811523,0.09400010108947754,10.63828643171471,11.100385957329978,2.59745565828969e-38,971.0,-25.0,118.0,-46.75,-5.75,-23.0625,-61.6875,3.6875,-3.4375,125.25,86.25,1.0625,-0.61431884765625,-0.30255126953125,-0.6473388671875,0.33477783203125,-7.0,-6.0,57.0,978.0,-19.0,60.0,2878,3143,608,
93,8.374999761581421,0.08699965476989746,11.49429848480281,11.104477928061355,2.59745565828969e-38,997.0,-33.0,54.0,-46.75,-2.6875,-22.375,-60.8125,0.6875,-3.5,130.5625,86.375,1.125,-0.62841796875,-0.27410888671875,-0.6612548828125,0.30438232421875,16.0,-6.0,23.0,978.0,-19.0,58.0,2874,3151,663,
94,8.45799994468689,0.08300018310546875,12.048166191745565,11.113738545133064,2.59745565828969e-38,995.0,-26.0,96.0,-46.75,-0.375,-21.1875,-59.625,-0.8125,-3.625,135.8125,86.375,1.125,-0.6405029296875,-0.244873046875,-0.6744384765625,0.27374267578125,6.0,-10.0,9.0,978.0,-19.0,58.0,2797,3170,738,
95,8.54699993133545,0.08899998664855957,11.235956741755135,11.115011204306454,2.5967381934759555e-38,997.0,-28.0,85.0,-47.875,1.1875,-18.875,-60.0,-0.3125,-3.25,140.4375,86.375,1.1875,-0.65008544921875,-0.218505859375,-0.684814453125,0.24627685546875,19.0,-7.0,27.0,978.0,-20.0,58.0,2993,3221,698,
96,8.631999969482422,0.08500003814697266,11.764700602497504,11.121408751088794,2.5967381934759555e-38,995.0,-27.0,74.0,-47.1875,1.1875,-17.75,-59.375,0.25,-3.0,145.5625,86.375,1.25,-0.659423828125,-0.1884765625,-0.6951904296875,0.21527099609375,14.0,-10.0,24.0,978.0,-21.0,58.0,2965,3193,665,
97,8.717999935150146,0.08599996566772461,11.627911618751906,11.126405221558356,2.5967381934759555e-38,992.0,-28.0,65.0,-47.1875,2.75,-16.5625,-58.9375,-1.0625,-3.4375,150.6875,86.375,1.25,-0.66754150390625,-0.1583251953125,-0.703857421875,0.1839599609375,13.0,-7.0,5.0,978.0,-22.0,57.0,2966,3092,510,
98,8.800999879837036,0.08299994468688965,12.048200800282656,11.135098436317058,2.5967381934759555e-38,995.0,-29.0,84.0,-46.375,5.1875,-14.0625,-58.5,-0.625,-3.375,154.625,86.375,1.3125,-0.67279052734375,-0.13482666015625,-0.70977783203125,0.159423828125,17.0,-7.0,27.0,978.0,-22.0,57.0,2804,3068,412,
99,8.884000062942505,0.08300018310546875,12.048166191745565,11.143628916995958,2.5967381934759555e-38,994.0,-29.0,81.0,-45.25,4.875,-14.1875,-58.5625,0.25,-3.375,159.75,86.375,1.3125,-0.67840576171875,-0.1046142578125,-0.71588134765625,0.12774658203125,16.0,-6.0,24.0,978.0,-23.0,56.0,2707,3098,376,
100,8.966999769210815,0.08299970626831055,12.048235409018574,11.15200207134621,2.5970969258828227e-38,993.0,-43.0,81.0,-44.1875,6.0625,-12.25,-57.8125,0.125,-3.3125,164.8125,86.375,1.375,-0.682373046875,-0.07421875,-0.7208251953125,0.0960693359375,11.0,-7.0,-4.0,978.0,-23.0,56.0,2641,3152,355,
101,9.052000045776367,0.08500027656555176,11.764667603508387,11.157755135797448,2.5970969258828227e-38,987.0,-26.0,108.0,-43.0625,7.0,-10.6875,-58.5,2.125,-3.25,168.75,86.375,1.375,-0.6846923828125,-0.05059814453125,-0.72357177734375,0.07122802734375,8.0,-2.0,52.0,978.0,-23.0,56.0,2592,3153,247,
102,9.138000011444092,0.08599996566772461,11.627911618751906,11.162179894097067,2.5970969258828227e-38,999.0,-30.0,84.0,-43.5,6.25,-12.25,-58.3125,0.5625,-3.0,173.75,86.4375,1.375,-0.68670654296875,-0.02032470703125,-0.7255859375,0.03936767578125,20.0,-6.0,29.0,978.0,-24.0,55.0,2584,3125,121,
103,9.220999956130981,0.08299994468688965,12.048200800282656,11.170155133935987,2.5970969258828227e-38,991.0,-27.0,65.0,-40.75,7.375,-9.0625,-57.9375,0.6875,-3.3125,178.8125,86.5,1.375,-0.68719482421875,0.010009765625,-0.72637939453125,0.00750732421875,13.0,-8.0,25.0,978.0,-24.0,54.0,2608,3192,171,
104,9.30400013923645,0.08300018310546875,12.048166191745565,11.177987794885711,2.597025179401449e-38,994.0,-33.0,84.0,-40.1875,6.0,-8.1875,-57.875,-15.5625,-3.1875,182.6875,86.5,1.4375,-0.68670654296875,0.03363037109375,-0.7259521484375,-0.01727294921875,12.0,-9.0,22.0,978.0,-24.0,53.0,2625,3027,-61,
105,9.38699984550476,0.08299970626831055,12.048235409018574,11.185682510720644,2.597025179401449e-38,994.0,-32.0,70.0,-39.0625,6.5,-8.1875,-57.75,0.0,-3.25,187.75,86.5625,1.4375,-0.6849365234375,0.0638427734375,-0.72412109375,-0.049072265625,15.0,-7.0,18.0,978.0,-24.0,52.0,2657,2931,-214,
106,9.47000002861023,0.08300018310546875,12.048166191745565,11.19324178244549,2.597025179401449e-38,991.0,-33.0,68.0,-38.375,6.75,-9.0,-57.75,0.25,-3.25,192.75,86.625,1.4375,-0.681884765625,0.093994140625,-0.7208251953125,-0.08087158203125,16.0,-3.0,18.0,979.0,-24.0,51.0,2679,2948,-227,
107,9.555999994277954,0.08599996566772461,11.627911618751906,11.197153627466578,2.597025179401449e-38,993.0,-27.0,72.0,-36.875,5.6875,-8.375,-57.8125,0.25,-3.5,197.3125,86.6875,1.375,-0.6781005859375,0.12060546875,-0.71673583984375,-0.109130859375,14.0,-2.0,22.0,979.0,-24.0,50.0,2676,3134,-77,
108,9.638999938964844,0.08299994468688965,12.048200800282656,11.204481863665038,2.597025179401449e-38,991.0,-39.0,63.0,-36.875,6.0625,-8.375,-58.1875,0.0,-3.4375,201.8125,86.75,1.375,-0.67327880859375,0.1470947265625,-0.71148681640625,-0.1373291015625,11.0,-15.0,14.0,979.0,-23.0,49.0,2681,3274,24,
109,9.721999883651733,0.08299994468688965,12.048200800282656,11.211684972686701,2.5978861371779304e-38,994.0,-22.0,49.0,-35.75,6.75,-9.5,-58.0,0.4375,-3.3125,206.375,86.8125,1.375,-0.66650390625,0.1767578125,-0.704345703125,-0.168701171875,20.0,-18.0,28.0,979.0,-23.0,48.0,2704,3379,140,
110,9.805000066757202,0.08300018310546875,12.048166191745565,11.218765859364261,2.5978861371779304e-38,989.0,-16.0,58.0,-35.0,7.0625,-9.875,-58.5,0.4375,-3.0,211.4375,86.875,1.3125,-0.65924072265625,0.20306396484375,-0.69683837890625,-0.19647216796875,10.0,7.0,11.0,979.0,-23.0,47.0,2720,3489,276,
113,10.001999855041504,0.053999900817871094,18.51855253165675,11.29774061564722,2.5978861371779304e-38,993.0,-36.0,69.0,-35.875,10.5625,-12.0625,-59.375,-0.3125,-3.4375,222.375,87.0,1.3125,-0.6378173828125,0.2646484375,-0.67425537109375,-0.26177978515625,14.0,-13.0,24.0,979.0,-22.0,45.0,2799,3658,489,
114,10.08400011062622,0.0820002555847168,12.195083940523473,11.305037559437368,2.5973839118083164e-38,992.0,-35.0,72.0,-37.375,12.0,-12.875,-60.0625,0.25,-3.375,227.625,87.0625,1.25,-0.6256103515625,0.29327392578125,-0.66119384765625,-0.29217529296875,13.0,-14.0,28.0,979.0,-21.0,44.0,2813,3707,626,
115,10.169999837875366,0.08599972724914551,11.627943855018865,11.307768125198404,2.5973839118083164e-38,993.0,-30.0,59.0,-38.75,12.5625,-11.75,-60.25,0.625,-3.3125,232.3125,87.125,1.1875,-0.61346435546875,0.31829833984375,-0.6485595703125,-0.31890869140625,14.0,-9.0,15.0,979.0,-21.0,43.0,2832,3732,749,
116,10.254999876022339,0.08500003814697266,11.764700602497504,11.311555475609966,2.5973839118083164e-38,992.0,-21.0,57.0,-41.6875,15.375,-11.0,-60.375,-0.125,-3.375,237.625,87.1875,1.1875,-0.59857177734375,0.34613037109375,-0.6328125,-0.34844970703125,12.0,0.0,14.0,979.0,-20.0,42.0,2829,3751,803,
117,10.336999893188477,0.0820000171661377,12.195119398254892,11.318564497335117,2.5973839118083164e-38,997.0,-22.0,66.0,-43.5625,16.5,-9.875,-61.25,-0.8125,-3.625,242.4375,87.25,1.125,-0.5843505859375,0.37042236328125,-0.617431640625,-0.374267578125,17.0,-2.0,24.0,979.0,-19.0,41.0,2830,3755,844,
121,10.52999997138977,0.024000167846679688,41.66637526821903,11.490978188866052,2.597312165326943e-38,1004.0,-29.0,66.0,-43.75,21.0,-0.0625,-62.25,-2.375,-3.6875,253.875,87.375,1.0,-0.5457763671875,0.42620849609375,-0.57659912109375,-0.43365478515625,24.0,-11.0,26.0,979.0,-17.0,40.0,2730,3782,909,
122,10.61299991607666,0.08299994468688965,12.048200800282656,11.495335999691603,2.597312165326943e-38,992.0,-33.0,78.0,-42.6875,20.6875,5.1875,-63.1875,1.375,-3.4375,259.375,87.5,0.9375,-0.52545166015625,0.45147705078125,-0.5548095703125,-0.46075439453125,13.0,-17.0,38.0,979.0,-16.0,39.0,2721,3766,924,
123,10.694999933242798,0.0820000171661377,12.195119398254892,11.500701334058405,2.597312165326943e-38,994.0,-24.0,69.0,-39.375,19.0,8.1875,-62.8125,1.5625,-3.25,264.25,87.4375,0.9375,-0.50555419921875,0.47314453125,-0.53497314453125,-0.48406982421875,14.0,-8.0,29.0,979.0,-16.0,40.0,2737,3729,924,
124,10.77999997138977,0.08500003814697266,11.764700602497504,11.502782961882863,2.597312165326943e-38,1001.0,-34.0,60.0,-37.1875,19.5,10.5625,-63.25,-3.125,-3.625,269.1875,87.5,0.875,-0.4852294921875,0.49432373046875,-0.51348876953125,-0.50653076171875,21.0,-19.0,20.0,979.0,-15.0,39.0,2833,3700,909,
125,10.865000009536743,0.08500003814697266,11.764700602497504,11.504832019354016,2.5967381934759555e-38,993.0,-55.0,76.0,-33.75,18.5,13.25,-63.9375,0.1875,-3.625,274.8125,87.5,0.8125,-0.46112060546875,0.5169677734375,-0.488037109375,-0.53094482421875,14.0,-40.0,36.0,979.0,-14.0,39.0,2970,3666,812,
126,10.947999954223633,0.08299994468688965,12.048200800282656,11.508951454771465,2.5967381934759555e-38,990.0,14.0,41.0,-29.0625,16.5,14.0,-63.8125,2.8125,-3.625,279.8125,87.5,0.75,-0.43841552734375,0.5361328125,-0.46453857421875,-0.55194091796875,10.0,28.0,1.0,979.0,-13.0,39.0,3001,3663,750,
127,11.030999898910522,0.08299994468688965,12.048200800282656,11.513008898907085,2.5967381934759555e-38,980.0,-26.0,47.0,-27.875,15.0,14.875,-64.375,1.0625,-3.5625,285.5,87.5625,0.6875,-0.412353515625,0.55694580078125,-0.43621826171875,-0.573974609375,0.0,-14.0,9.0,979.0,-12.0,38.0,3015,3689,478,
128,11.115999937057495,0.08500003814697266,11.764700602497504,11.514933494492512,2.5967381934759555e-38,989.0,-4.0,55.0,-24.25,13.0625,15.25,-65.0625,1.5625,-3.25,290.5625,87.5625,0.625,-0.3875732421875,0.57421875,-0.41058349609375,-0.5928955078125,9.0,7.0,15.0,979.0,-11.0,39.0,3084,3541,398,
129,11.200999975204468,0.08500003814697266,11.764700602497504,11.516828880061237,2.596020728662221e-38,968.0,-38.0,47.0,-22.0,12.75,16.0,-65.125,0.0,-3.5,296.25,87.625,0.625,-0.35894775390625,0.5927734375,-0.3804931640625,-0.61236572265625,-11.0,-27.0,8.0,979.0,-11.0,38.0,3087,3520,129,
130,11.288000106811523,0.08700013160705566,11.494235485948398,11.516654745737824,2.596020728662221e-38,995.0,-33.0,44.0,-21.0,10.875,15.25,-65.4375,0.0625,-3.875,301.375,87.5625,0.5625,-0.3323974609375,0.607666015625,-0.3529052734375,-0.6290283203125,15.0,-22.0,4.0,979.0,-10.0,39.0,3151,3515,-16,
131,11.373999834060669,0.08599972724914551,11.627943855018865,11.517496211641078,2.596020728662221e-38,993.0,-20.0,68.0,-19.5,9.25,14.0,-65.4375,0.3125,-3.875,307.1875,87.5625,0.5,-0.30194091796875,0.6231689453125,-0.320556640625,-0.6463623046875,13.0,-11.0,27.0,979.0,-9.0,40.0,3204,3556,14,
132,11.460000038146973,0.08600020408630371,11.627879382663684,11.518324568988724,2.596020728662221e-38,992.0,-19.0,76.0,-18.75,8.75,14.0,-66.6875,2.6875,-3.5625,313.0625,87.625,0.4375,-0.27069091796875,0.6376953125,-0.28704833984375,-0.66156005859375,12.0,-11.0,37.0,979.0,-7.0,39.0,3207,3630,-5,
133,11.549000024795532,0.08899998664855957,11.235956741755135,11.51614855956801,2.596020728662221e-38,984.0,-31.0,44.0,-19.1875,8.0,13.25,-66.375,1.3125,-3.5625,318.25,87.5,0.375,-0.24169921875,0.64849853515625,-0.257080078125,-0.67449951171875,18.0,-12.0,30.0,979.0,-7.0,41.0,3177,3587,129,
134,11.633999824523926,0.08499979972839355,11.76473360167174,11.517964760282554,2.5967381934759555e-38,996.0,-31.0,76.0,-20.25,7.0625,14.0,-67.25,-1.0625,-3.8125,324.125,87.5625,0.375,-0.20867919921875,0.659912109375,-0.2222900390625,-0.68670654296875,17.0,-24.0,35.0,979.0,-6.0,41.0,3144,3622,139,
135,11.718999862670898,0.08500003814697266,11.764700602497504,11.51975438023701,2.5967381934759555e-38,1001.0,-19.0,68.0,-20.0,5.5,13.5625,-66.8125,-1.625,-4.3125,330.0625,87.5,0.25,-0.17889404296875,0.66815185546875,-0.19049072265625,-0.69659423828125,6.0,-12.0,16.0,979.0,-5.0,42.0,3122,3519,179,
136,11.80400013923645,0.08500027656555176,11.764667603508387,11.521517993543268,2.5967381934759555e-38,988.0,-19.0,85.0,-21.5,3.1875,14.6875,-67.625,1.5625,-4.0,335.3125,87.5,0.1875,-0.1448974609375,0.67620849609375,-0.1541748046875,-0.70562744140625,8.0,-15.0,42.0,979.0,-3.0,42.0,3138,3424,205,
137,11.888999938964844,0.08499979972839355,11.76473360167174,11.523256851150121,2.5967381934759555e-38,1001.0,-20.0,60.0,-22.5625,1.25,14.6875,-67.0,-2.75,-3.6875,341.25,87.375,0.1875,-0.11004638671875,0.6815185546875,-0.1217041015625,-0.713134765625,0.0,-15.0,25.0,979.0,-3.0,44.0,3215,3333,252,
138,11.972000122070312,0.08300018310546875,12.048166191745565,11.526895973346827,2.596451207550462e-38,992.0,-10.0,39.0,-23.0,0.875,13.75,-67.5625,0.0625,-3.4375,346.4375,87.375,0.1875,-0.07867431640625,0.68634033203125,-0.08502197265625,-0.71795654296875,12.0,-6.0,-4.0,979.0,-3.0,44.0,3301,3260,298,
139,12.057999849319458,0.08599972724914551,11.627943855018865,11.527616664205302,2.596451207550462e-38,982.0,-42.0,64.0,-24.5,0.0625,13.75,-68.1875,2.4375,-3.9375,351.75,87.3125,0.125,-0.04730224609375,0.68902587890625,-0.0516357421875,-0.72137451171875,3.0,-39.0,19.0,979.0,-2.0,45.0,3362,3218,302,
140,12.144000053405762,0.08600020408630371,11.627879382663684,11.528326695019839,2.596451207550462e-38,998.0,2.0,65.0,-24.75,-1.75,14.25,-67.75,-3.5,-4.1875,357.75,87.25,0.125,-0.011962890625,0.68994140625,-0.01409912109375,-0.7236328125,24.0,-8.0,31.0,979.0,-2.0,46.0,3398,3191,296,
141,12.230000019073486,0.08599996566772461,11.627911618751906,11.529026964848835,2.596451207550462e-38,996.0,-2.0,92.0,-26.1875,-2.875,14.6875,-67.875,1.3125,-4.0,3.6875,87.125,0.0625,0.02374267578125,0.68878173828125,0.02337646484375,-0.72418212890625,16.0,0.0,43.0,979.0,-2.0,49.0,3375,3167,268,
142,12.312999963760376,0.08299994468688965,12.048200800282656,11.532526631847189,2.596451207550462e-38,987.0,-51.0,46.0,-27.0,-6.5625,12.6875,-67.6875,-0.8125,-3.875,8.9375,87.0625,0.125,0.05548095703125,0.686767578125,0.056640625,-0.7225341796875,8.0,-49.0,-3.0,979.0,-2.0,49.0,3318,3132,267,
143,12.396000146865845,0.08300018310546875,12.048166191745565,11.535979211500377,2.5968816864387024e-38,984.0,-7.0,64.0,-28.0,-7.25,13.75,-68.25,1.5,-3.8125,14.25,87.0,0.0625,0.08685302734375,0.6829833984375,0.090087890625,-0.7196044921875,15.0,23.0,41.0,979.0,-1.0,50.0,3300,3130,262,
144,12.48199987411499,0.08599972724914551,11.627943855018865,11.536612838670615,2.5968816864387024e-38,993.0,-21.0,72.0,-29.5,-9.1875,12.6875,-68.125,3.0,-3.6875,20.1875,86.9375,0.0625,0.12200927734375,0.67730712890625,0.12725830078125,-0.71429443359375,14.0,-19.0,21.0,979.0,-1.0,51.0,3290,3134,254,
145,12.565000057220459,0.08300018310546875,12.048166191745565,11.539991988832181,2.5968816864387024e-38,996.0,-20.0,69.0,-31.375,-11.375,10.25,-67.6875,0.5,-3.9375,25.375,86.875,0.125,0.15313720703125,0.6705322265625,0.1597900390625,-0.7081298828125,17.0,-17.0,16.0,979.0,-2.0,52.0,3280,3189,322,
146,12.65499997138977,0.08999991416931152,11.11112170750251,11.53694194627219,2.5968816864387024e-38,989.0,-60.0,91.0,-32.875,-14.25,8.75,-67.4375,2.5625,-3.9375,30.625,86.8125,0.1875,0.183837890625,0.6622314453125,0.1920166015625,-0.7005615234375,9.0,-57.0,37.0,979.0,-3.0,54.0,3242,3253,427,
147,12.753000020980835,0.09800004959106445,10.204076469071287,11.526699581130732,2.596451207550462e-38,991.0,-27.0,62.0,-32.875,-18.0,7.25,-67.0625,-2.4375,-4.0625,37.1875,86.75,0.125,0.22125244140625,0.65057373046875,0.23193359375,-0.6884765625,11.0,-24.0,8.0,979.0,-2.0,54.0,3293,3152,304,
148,12.835999965667725,0.08299994468688965,12.048200800282656,11.530071704257837,2.596451207550462e-38,987.0,-8.0,97.0,-34.375,-18.375,6.5,-67.5625,2.8125,-3.8125,43.0625,86.6875,0.125,0.25433349609375,0.63763427734375,0.2672119140625,-0.67626953125,12.0,2.0,53.0,979.0,-3.0,56.0,3301,3074,199,
149,12.924000024795532,0.08800005912780762,11.363628728335758,11.528938387042235,2.596451207550462e-38,988.0,-32.0,63.0,-34.6875,-19.875,3.875,-67.75,3.625,-3.5,48.875,86.625,0.1875,0.286865234375,0.62335205078125,0.30126953125,-0.662109375,15.0,-12.0,15.0,978.0,-4.0,57.0,3314,3019,147,
150,13.009000062942505,0.08500003814697266,11.764700602497504,11.530478843434759,2.596451207550462e-38,988.0,-17.0,73.0,-35.5,-22.0625,0.75,-66.4375,-3.4375,-3.625,54.6875,86.625,0.25,0.3116455078125,0.6109619140625,0.32720947265625,-0.6500244140625,17.0,-1.0,43.0,978.0,-5.0,58.0,3313,2969,124,
151,13.093999862670898,0.08499979972839355,11.76473360167174,11.531999509980077,2.5977426442151835e-38,995.0,-29.0,80.0,-36.25,-24.0,-0.75,-66.625,-2.6875,-3.8125,59.1875,86.5625,0.3125,0.342529296875,0.59417724609375,0.35955810546875,-0.63275146484375,16.0,-23.0,21.0,978.0,-6.0,58.0,3292,2956,123,
152,13.178999900817871,0.08500003814697266,11.764700602497504,11.533500352372496,2.5977426442151835e-38,990.0,-6.0,95.0,-38.0625,-22.875,-3.25,-65.875,14.3125,-4.1875,64.9375,86.4375,0.375,0.37213134765625,0.57513427734375,0.391357421875,-0.614501953125,11.0,0.0,35.0,978.0,-7.0,60.0,3261,2971,130,
153,13.277999877929688,0.0989999771118164,10.101012436301284,11.522819807696507,2.5977426442151835e-38,998.0,-16.0,53.0,-38.5,-24.5,-7.6875,-66.75,4.6875,-3.75,71.3125,86.4375,0.4375,0.40399169921875,0.55322265625,0.4248046875,-0.59185791015625,19.0,-20.0,29.0,978.0,-8.0,60.0,3207,3005,174,
154,13.36299991607666,0.08500003814697266,11.764700602497504,11.524358375152485,2.5977426442151835e-38,986.0,14.0,96.0,-37.375,-22.1875,-10.6875,-65.5,-0.375,-3.4375,76.3125,86.3125,0.5,0.431396484375,0.53173828125,0.45361328125,-0.57037353515625,4.0,-36.0,3.0,978.0,-9.0,61.0,3226,3119,210,
155,13.45799994468689,0.09500002861022949,10.526312619366108,11.517313169643216,2.5960924751435946e-38,996.0,-30.0,90.0,-40.375,-21.1875,-15.0625,-65.5625,0.875,-3.25,82.0,86.375,0.5625,0.45477294921875,0.511962890625,0.4781494140625,-0.54998779296875,13.0,-4.0,16.0,978.0,-10.0,61.0,3284,3231,206,
156,13.554999828338623,0.0969998836517334,10.309290716166029,11.508668533795197,2.5960924751435946e-38,990.0,-37.0,79.0,-39.5625,-19.75,-17.375,-64.0,-2.75,-3.6875,88.1875,86.25,0.6875,0.4822998046875,0.48529052734375,0.507568359375,-0.523681640625,11.0,-25.0,16.0,978.0,-12.0,62.0,3119,3228,218,
157,13.646999835968018,0.09200000762939453,10.869564315997886,11.504360070864145,2.5960924751435946e-38,986.0,-22.0,94.0,-42.1875,-17.25,-20.1875,-64.125,0.0,-3.8125,94.375,86.1875,0.75,0.50823974609375,0.45770263671875,0.53515625,-0.49578857421875,8.0,-8.0,31.0,978.0,-13.0,63.0,2978,3256,179,
158,13.736999988555908,0.09000015258789062,11.111092273131861,11.50178351398613,2.5960924751435946e-38,988.0,-46.0,60.0,-42.1875,-16.5625,-20.25,-63.1875,-2.3125,-4.0625,99.875,86.25,0.8125,0.5302734375,0.43243408203125,0.5582275390625,-0.46923828125,10.0,-31.0,-1.0,978.0,-14.0,62.0,2889,3304,95,
159,13.832000017166138,0.09500002861022949,10.526312619366108,11.495083849238997,2.5960924751435946e-38,984.0,-26.0,91.0,-43.25,-13.875,-21.75,-63.375,1.3125,-3.625,106.0,86.1875,0.875,0.552734375,0.403076171875,0.58251953125,-0.43896484375,18.0,-2.0,43.0,978.0,-15.0,62.0,2863,3225,225,
160,13.92199993133545,0.08999991416931152,11.11112170750251,11.492601694378275,2.5975991512524367e-38,1005.0,-27.0,80.0,-46.25,-10.25,-22.5625,-62.3125,-1.5625,-3.5625,111.375,86.1875,0.9375,0.571533203125,0.37603759765625,0.60247802734375,-0.4110107421875,10.0,-12.0,40.0,978.0,-16.0,62.0,2847,3178,375,
161,14.013000011444092,0.09100008010864258,10.989001315231004,11.489331325805683,2.5975991512524367e-38,984.0,-23.0,95.0,-45.375,-8.0,-23.0625,-61.875,1.625,-3.5625,116.6875,86.1875,1.0,0.5888671875,0.34832763671875,0.6209716796875,-0.3824462890625,14.0,6.0,43.0,978.0,-17.0,62.0,2854,3165,490,
162,14.104000091552734,0.09100008010864258,10.989001315231004,11.48610315856607,2.5975991512524367e-38,988.0,-53.0,112.0,-46.1875,-6.1875,-21.5625,-61.1875,-2.6875,-3.625,121.4375,86.25,1.0625,0.60333251953125,0.3236083984375,0.63580322265625,-0.35638427734375,9.0,-34.0,51.0,978.0,-18.0,61.0,2865,3147,562,
163,14.194999933242798,0.09099984169006348,10.989030106292951,11.482916573904006,2.5975991512524367e-38,981.0,-27.0,98.0,-46.875,-3.0625,-22.0,-60.75,2.4375,-3.4375,127.3125,86.1875,1.0625,0.61798095703125,0.295166015625,0.65142822265625,-0.32659912109375,14.0,-20.0,48.0,978.0,-18.0,60.0,2885,3140,627,
164,14.28600001335144,0.09100008010864258,10.989001315231004,11.47977039386312,2.598173123103424e-38,998.0,-29.0,85.0,-47.5625,-1.5625,-21.1875,-60.125,-1.8125,-3.6875,132.5,86.3125,1.0625,0.6326904296875,0.263427734375,0.66668701171875,-0.29296875,19.0,-10.0,25.0,978.0,-19.0,59.0,2830,3143,676,
165,14.373999834060669,0.08799982070922852,11.363659515900926,11.479059545347674,2.598173123103424e-38,988.0,-25.0,70.0,-47.25,-0.375,-20.5625,-59.6875,1.25,-3.25,137.125,86.25,1.125,0.64385986328125,0.23388671875,0.679443359375,-0.2626953125,16.0,-8.0,38.0,978.0,-20.0,60.0,2976,3153,630,
166,14.464999914169312,0.09100008010864258,10.989001315231004,11.47597656308268,2.598173123103424e-38,995.0,-28.0,82.0,-47.5,3.0625,-18.1875,-58.9375,-1.625,-3.1875,142.25,86.25,1.1875,0.6529541015625,0.2076416015625,0.68927001953125,-0.235595703125,12.0,-6.0,13.0,978.0,-20.0,59.0,3006,3153,616,
167,14.555999994277954,0.09100008010864258,10.989001315231004,11.472932128720021,2.598173123103424e-38,996.0,-30.0,98.0,-47.25,4.25,-17.5,-58.9375,-0.25,-3.3125,147.875,86.25,1.25,0.6627197265625,0.174560546875,0.69989013671875,-0.2012939453125,17.0,-8.0,38.0,978.0,-22.0,59.0,2989,3068,499,
168,14.646999835968018,0.09099984169006348,10.989030106292951,11.469925710482327,2.596953432920076e-38,986.0,-26.0,88.0,-46.1875,5.0625,-15.875,-58.25,0.8125,-3.375,152.9375,86.25,1.3125,0.66998291015625,0.14471435546875,0.70794677734375,-0.170166015625,8.0,-4.0,29.0,978.0,-22.0,59.0,2867,3029,388,
169,14.73799991607666,0.09100008010864258,10.989001315231004,11.466956233026549,2.596953432920076e-38,989.0,-28.0,75.0,-45.75,5.0625,-15.0625,-57.875,-0.25,-3.4375,158.0,86.3125,1.3125,0.67608642578125,0.11492919921875,0.71441650390625,-0.13885498046875,10.0,-5.0,17.0,978.0,-23.0,58.0,2744,3077,351,
170,14.828999996185303,0.09100008010864258,10.989001315231004,11.46402320073719,2.596953432920076e-38,995.0,-45.0,89.0,-44.6875,6.375,-13.0,-57.4375,-2.1875,-3.5,163.0,86.3125,1.375,0.68060302734375,0.08489990234375,0.7197265625,-0.107421875,16.0,-22.0,31.0,978.0,-23.0,58.0,2653,3127,298,
171,14.92199993133545,0.09299993515014648,10.752695670007947,11.459589920042058,2.596953432920076e-38,986.0,-33.0,85.0,-44.25,6.5,-11.0625,-57.375,1.0,-3.25,168.0,86.3125,1.375,0.683837890625,0.054931640625,0.72357177734375,-0.075927734375,8.0,-9.0,27.0,978.0,-23.0,57.0,2609,3133,213,
172,15.016000032424927,0.09400010108947754,10.63828643171471,11.454448563438355,2.5975991512524367e-38,992.0,-25.0,58.0,-42.0625,7.25,-9.875,-56.875,0.75,-3.125,173.5,86.375,1.375,0.68609619140625,0.0216064453125,0.72601318359375,-0.04095458984375,13.0,-1.0,1.0,978.0,-24.0,56.0,2601,3124,113,
173,15.108000040054321,0.09200000762939453,10.869564315997886,11.450886916954097,2.5975991512524367e-38,993.0,-31.0,88.0,-41.375,6.6875,-10.5625,-57.0625,0.375,-3.125,178.5,86.4375,1.4375,0.686767578125,-0.008544921875,0.726806640625,-0.0093994140625,15.0,-6.0,32.0,978.0,-24.0,55.0,2614,2969,-110,
174,15.205999851226807,0.09799981117248535,10.204101294031496,11.442851617939601,2.5975991512524367e-38,995.0,-29.0,79.0,-40.0,5.5625,-8.5625,-57.125,-0.125,-3.3125,184.0,86.5,1.4375,0.68609619140625,-0.0418701171875,0.725830078125,0.025634765625,16.0,-4.0,25.0,978.0,-25.0,53.0,2639,2868,-255,
175,15.29699993133545,0.09100008010864258,10.989001315231004,11.440151715077,2.5975991512524367e-38,992.0,-33.0,78.0,-37.6875,6.5,-7.25,-57.25,0.125,-3.375,189.0,86.5625,1.4375,0.68408203125,-0.07177734375,0.7236328125,0.05712890625,13.0,-8.0,25.0,978.0,-25.0,52.0,2665,2822,-351,
176,15.388000011444092,0.09100008010864258,10.989001315231004,11.43748374506813,2.597025179401449e-38,991.0,-28.0,60.0,-38.875,6.0625,-7.6875,-57.25,-0.4375,-3.5,194.0,86.625,1.4375,0.6807861328125,-0.1015625,0.719970703125,0.08868408203125,12.0,-3.0,9.0,978.0,-24.0,51.0,2670,3047,-185,
177,15.478999853134155,0.09099984169006348,10.989030106292951,11.434847320846858,2.597025179401449e-38,992.0,-25.0,67.0,-37.0,7.1875,-8.375,-57.6875,-0.125,-3.5625,199.0625,86.6875,1.375,0.6761474609375,-0.13116455078125,0.71490478515625,0.12030029296875,13.0,-1.0,16.0,979.0,-24.0,50.0,2658,3215,-47,
178,15.57099986076355,0.09200000762939453,10.869564315997886,11.431507391412401,2.597025179401449e-38,987.0,-36.0,73.0,-36.1875,6.75,-9.1875,-58.1875,0.9375,-3.375,204.125,86.8125,1.375,0.67022705078125,-0.16070556640625,0.70843505859375,0.15179443359375,8.0,-13.0,24.0,979.0,-23.0,48.0,2678,3343,70,
179,15.661999940872192,0.09100008010864258,10.989001315231004,11.428936322038561,2.597025179401449e-38,991.0,-37.0,80.0,-35.875,7.75,-9.875,-58.5,0.3125,-2.875,209.25,86.875,1.375,0.662841796875,-0.1903076171875,0.70068359375,0.182861328125,12.0,-2.0,28.0,979.0,-23.0,47.0,2696,3475,222,
180,15.753000020980835,0.09100008010864258,10.989001315231004,11.42639495716782,2.5985318555102913e-38,997.0,-32.0,88.0,-35.875,7.6875,-12.1875,-59.375,0.3125,-3.125,214.9375,86.9375,1.3125,0.653076171875,-0.22296142578125,0.6903076171875,0.21734619140625,18.0,-8.0,41.0,979.0,-23.0,46.0,2758,3572,356,
181,15.842999935150146,0.08999991416931152,11.11112170750251,11.424603972788228,2.5985318555102913e-38,989.0,-19.0,75.0,-36.1875,9.875,-12.5,-59.375,1.3125,-3.375,220.0625,87.0,1.3125,0.64276123046875,-0.25201416015625,0.67950439453125,0.24810791015625,9.0,3.0,29.0,979.0,-23.0,45.0,2821,3639,466,
182,15.929999828338623,0.08699989318847656,11.494266985289281,11.424984429455654,2.5985318555102913e-38,998.0,-33.0,66.0,-37.375,10.0625,-11.75,-59.5,-1.6875,-3.625,224.75,87.0,1.25,0.63250732421875,-0.27752685546875,0.668701171875,0.2752685546875,19.0,-11.0,21.0,979.0,-22.0,44.0,2816,3699,604,
183,16.013000011444092,0.08300018310546875,12.048166191745565,11.42821456748982,2.5985318555102913e-38,997.0,-27.0,61.0,-38.875,12.25,-13.0,-59.9375,-0.6875,-3.5625,230.0,87.125,1.25,0.61962890625,-0.30584716796875,0.655029296875,0.3056640625,17.0,-5.0,17.0,979.0,-21.0,44.0,2834,3727,726,
184,16.09599995613098,0.08299994468688965,12.048200800282656,11.431411561970975,2.5985318555102913e-38,996.0,-23.0,72.0,-41.0,14.6875,-10.5625,-60.625,1.4375,-3.375,234.6875,87.125,1.1875,0.60693359375,-0.33074951171875,0.6417236328125,0.33221435546875,16.0,-3.0,28.0,979.0,-20.0,43.0,2838,3734,818,
185,16.18499994277954,0.08899998664855957,11.235956741755135,11.430336771952371,2.5978861371779304e-38,990.0,-29.0,62.0,-42.1875,15.75,-10.25,-60.8125,0.375,-3.25,240.0625,87.1875,1.125,0.59136962890625,-0.35845947265625,0.6253662109375,0.361572265625,11.0,-8.0,19.0,979.0,-20.0,42.0,2822,3760,870,
186,16.281999826431274,0.0969998836517334,10.309290716166029,11.423658149047402,2.5978861371779304e-38,988.0,-35.0,52.0,-45.1875,17.875,-6.875,-61.125,0.6875,-3.5625,246.0,87.3125,1.125,0.5726318359375,-0.38848876953125,0.60528564453125,0.3934326171875,9.0,-16.0,10.0,979.0,-19.0,41.0,2837,3769,895,
187,16.375999927520752,0.09400010108947754,10.63828643171471,11.419150026114522,2.5978861371779304e-38,992.0,0.0,50.0,-44.25,19.375,-1.375,-61.1875,0.5,-3.6875,251.4375,87.3125,1.0625,0.553955078125,-0.41473388671875,0.5860595703125,0.42156982421875,13.0,19.0,8.0,979.0,-18.0,41.0,2729,3805,966,
188,16.467999935150146,0.09200000762939453,10.869564315997886,11.416079714618114,2.5978861371779304e-38,988.0,-34.0,30.0,-43.1875,20.25,3.5625,-61.875,-1.875,-3.75,256.9375,87.4375,1.0,0.53466796875,-0.44036865234375,0.564697265625,0.44866943359375,8.0,-17.0,-9.0,979.0,-17.0,39.0,2717,3794,1006,
189,16.55899977684021,0.09099984169006348,10.989030106292951,11.413732867146942,2.596020728662221e-38,989.0,-57.0,91.0,-40.1875,19.6875,7.0,-62.875,-0.8125,-3.375,262.4375,87.5,0.9375,0.513427734375,-0.46502685546875,0.54241943359375,0.47528076171875,9.0,-41.0,51.0,979.0,-16.0,39.0,2730,3744,1017,
190,16.649999856948853,0.09100008010864258,10.989001315231004,11.411411509454386,2.596020728662221e-38,993.0,-37.0,69.0,-36.0625,18.375,11.375,-62.6875,-2.6875,-3.3125,267.9375,87.4375,0.875,0.49053955078125,-0.48883056640625,0.5191650390625,0.5008544921875,13.0,-21.0,29.0,979.0,-15.0,39.0,2832,3709,999,
191,16.736999988555908,0.08700013160705566,11.494235485948398,11.411842034450508,2.596020728662221e-38,993.0,-44.0,76.0,-35.0,17.75,11.6875,-63.5625,0.5625,-3.5625,273.5,87.5,0.8125,0.4669189453125,-0.51177978515625,0.49407958984375,0.52532958984375,13.0,-29.0,36.0,979.0,-14.0,39.0,2955,3689,884,
192,16.829999923706055,0.09299993515014648,10.752695670007947,11.40819969520954,2.596020728662221e-38,1004.0,-15.0,63.0,-30.25,17.0625,14.875,-63.4375,0.3125,-3.625,279.0625,87.5,0.8125,0.44158935546875,-0.53338623046875,0.4681396484375,0.5489501953125,24.0,-1.0,23.0,979.0,-14.0,40.0,2990,3682,777,
193,16.92199993133545,0.09200000762939453,10.869564315997886,11.405271290813014,2.596522954031835e-38,982.0,-31.0,40.0,-28.0,14.1875,14.75,-64.625,0.125,-3.5625,285.3125,87.5625,0.75,0.41259765625,-0.556396484375,0.437255859375,0.57354736328125,19.0,-22.0,45.0,979.0,-13.0,39.0,3026,3704,444,
194,17.018999814987183,0.0969998836517334,10.309290716166029,11.399024743461172,2.596522954031835e-38,990.0,-36.0,71.0,-24.0,12.375,16.0,-64.5625,-0.875,-3.5625,291.0,87.5625,0.6875,0.38525390625,-0.5758056640625,0.4083251953125,0.59442138671875,21.0,1.0,0.0,979.0,-12.0,39.0,3070,3537,415,
195,17.11299991607666,0.09400010108947754,10.63828643171471,11.39484607937203,2.596522954031835e-38,1006.0,-30.0,112.0,-21.0,11.25,16.0,-64.625,3.75,-3.1875,297.3125,87.5625,0.625,0.35333251953125,-0.595703125,0.3748779296875,0.6162109375,18.0,6.0,5.0,979.0,-10.0,39.0,3079,3530,108,
196,17.204999923706055,0.09200000762939453,10.869564315997886,11.392037249005723,2.596522954031835e-38,1021.0,-42.0,69.0,-20.75,8.875,15.25,-65.25,-1.0,-3.5,302.4375,87.625,0.5625,0.32733154296875,-0.6109619140625,0.346923828125,0.6318359375,41.0,-32.0,31.0,979.0,-10.0,38.0,3168,3510,-27,
197,17.299999952316284,0.09500002861022949,10.526312619366108,11.387283268380807,2.5968816864387024e-38,997.0,-21.0,87.0,-19.25,10.0,14.0,-65.9375,-0.8125,-3.75,308.875,87.625,0.4375,0.29345703125,-0.6278076171875,0.32647705078125,0.65045166015625,12.0,-31.0,24.0,979.0,-8.0,38.0,3219,3565,18,
198,17.390999794006348,0.09099984169006348,10.989030106292951,11.385199375842609,2.5968816864387024e-38,999.0,-23.0,50.0,-19.25,8.0,13.1875,-65.8125,0.125,-3.6875,314.6875,87.625,0.375,0.26190185546875,-0.64129638671875,0.27764892578125,0.66558837890625,19.0,-16.0,11.0,979.0,-7.0,39.0,3225,3546,133,
199,17.48199987411499,0.09100008010864258,10.989001315231004,11.383137022821549,2.5968816864387024e-38,998.0,-24.0,75.0,-19.6875,7.875,12.75,-66.0625,-0.75,-3.75,321.125,87.5625,0.375,0.22576904296875,-0.6544189453125,0.2398681640625,0.68060302734375,11.0,-14.0,28.0,979.0,-6.0,40.0,3190,3527,227,
200,17.57799983024597,0.09599995613098145,10.416671426762,11.377858796873214,2.5968816864387024e-38,1004.0,-14.0,57.0,-20.0625,6.6875,14.75,-66.75,1.25,-4.125,327.0,87.5625,0.25,0.19281005859375,-0.66473388671875,0.20477294921875,0.692138671875,12.0,-24.0,41.0,979.0,-5.0,41.0,3187,3474,253,
201,17.66599988937378,0.08800005912780762,11.363628728335758,11.377787912299427,2.5972404188455695e-38,990.0,-13.0,68.0,-21.875,4.375,15.5,-66.3125,-1.25,-3.9375,332.875,87.4375,0.25,0.15899658203125,-0.6729736328125,0.16925048828125,0.7022705078125,19.0,-13.0,9.0,979.0,-4.0,42.0,3174,3398,245,
202,17.756999969482422,0.09100008010864258,10.989001315231004,11.375795480495677,2.5972404188455695e-38,982.0,-25.0,89.0,-21.1875,2.75,15.0,-67.1875,3.8125,-3.6875,338.0625,87.375,0.1875,0.12847900390625,-0.67901611328125,0.13720703125,0.70965576171875,2.0,-21.0,45.0,979.0,-3.0,43.0,3240,3328,238,
203,17.848000049591064,0.09100008010864258,10.989001315231004,11.37382336597714,2.5972404188455695e-38,989.0,-21.0,54.0,-22.25,2.0,13.5,-66.375,-2.0625,-3.75,343.9375,87.3125,0.1875,0.09381103515625,-0.684326171875,0.1007080078125,0.716064453125,9.0,-17.0,9.0,979.0,-3.0,44.0,3309,3238,268,
204,17.938999891281128,0.09099984169006348,10.989030106292951,11.371871410688279,2.5972404188455695e-38,983.0,-45.0,89.0,-23.375,0.75,13.375,-67.5625,1.8125,-3.9375,350.5,87.25,0.125,0.0548095703125,-0.68798828125,0.059814453125,0.72119140625,3.0,-41.0,42.0,979.0,-3.0,46.0,3365,3198,301,
205,18.02999997138977,0.09100008010864258,10.989001315231004,11.369939008613231,2.5977426442151835e-38,1007.0,-18.0,59.0,-25.6875,-1.75,12.5625,-66.9375,-2.8125,-4.0,356.375,87.1875,0.125,0.019775390625,-0.68951416015625,0.022705078125,0.7236328125,28.0,-16.0,28.0,979.0,-2.0,47.0,3383,3178,306,
206,18.126999855041504,0.0969998836517334,10.309290716166029,11.364263344587991,2.5977426442151835e-38,987.0,-7.0,73.0,-26.375,-4.375,12.1875,-67.375,2.5625,-4.0625,2.9375,87.125,0.125,-0.01934814453125,-0.6890869140625,-0.0186767578125,0.72418212890625,22.0,0.0,37.0,979.0,-2.0,48.0,3364,3159,299,
207,18.217999935150146,0.09100008010864258,10.989001315231004,11.362388886642291,2.5977426442151835e-38,982.0,-54.0,61.0,-28.1875,-6.0,13.0,-66.875,-0.125,-3.75,8.125,87.0625,0.125,-0.05059814453125,-0.68701171875,-0.05157470703125,0.72308349609375,23.0,34.0,36.0,979.0,-2.0,50.0,3315,3130,297,
208,18.30900001525879,0.09100008010864258,10.989001315231004,11.360533061699275,2.5977426442151835e-38,985.0,-50.0,79.0,-30.0625,-9.5625,12.25,-66.9375,-0.0625,-3.6875,13.9375,86.9375,0.125,-0.0858154296875,-0.68267822265625,-0.08843994140625,0.72027587890625,8.0,-47.0,27.0,979.0,-2.0,52.0,3295,3132,292,
209,18.40000009536743,0.09100008010864258,10.989001315231004,11.35869559330165,2.597025179401449e-38,988.0,-50.0,76.0,-30.5,-10.6875,11.5,-66.75,-1.0,-3.8125,20.4375,86.875,0.1875,-0.1246337890625,-0.67633056640625,-0.1290283203125,0.71441650390625,9.0,-47.0,23.0,979.0,-3.0,53.0,3288,3156,313,
210,18.49399995803833,0.09399986267089844,10.638313414361951,11.35503409086602,2.597025179401449e-38,993.0,4.0,91.0,-32.0,-13.25,10.6875,-67.0625,-0.875,-4.0,26.3125,86.8125,0.1875,-0.1590576171875,-0.668701171875,-0.16534423828125,0.707275390625,14.0,8.0,36.0,979.0,-3.0,54.0,3276,3233,390,
211,18.590999841690063,0.0969998836517334,10.309290716166029,11.349577849322303,2.597025179401449e-38,997.0,9.0,68.0,-32.375,-15.75,8.75,-67.0625,0.625,-4.0,32.8125,86.8125,0.1875,-0.19647216796875,-0.65875244140625,-0.20513916015625,0.6966552734375,18.0,12.0,15.0,979.0,-3.0,53.0,3272,3270,437,
212,18.68400001525879,0.09300017356872559,10.752668104011834,11.346606713062755,2.597025179401449e-38,985.0,-14.0,82.0,-33.375,-16.875,6.875,-66.125,-1.125,-4.0625,38.5625,86.6875,0.1875,-0.23321533203125,-0.6461181640625,-0.244140625,0.68450927734375,21.0,-14.0,26.0,979.0,-3.0,55.0,3284,3170,308,
213,18.777999877929688,0.09399986267089844,10.638313414361951,11.343061102601503,2.5968816864387024e-38,996.0,-6.0,81.0,-34.1875,-20.1875,4.1875,-66.5,0.0,-3.3125,44.9375,86.625,0.25,-0.26568603515625,-0.63262939453125,-0.2783203125,0.672119140625,17.0,-1.0,24.0,978.0,-4.0,57.0,3296,3086,221,
214,18.87399983406067,0.09599995613098145,10.416671426762,11.338349151291622,2.5968816864387024e-38,997.0,-22.0,83.0,-35.25,-20.1875,1.5,-65.9375,-1.8125,-3.3125,50.625,86.5625,0.3125,-0.29736328125,-0.617919921875,-0.31146240234375,0.6578369140625,10.0,-18.0,25.0,978.0,-6.0,58.0,3308,3022,160,
215,18.96399998664856,0.09000015258789062,11.111092273131861,11.337270625994984,2.5968816864387024e-38,992.0,-4.0,106.0,-36.0625,-23.1875,-2.75,-65.125,0.25,-3.5,56.3125,86.375,0.4375,-0.32794189453125,-0.601318359375,-0.34393310546875,0.642333984375,13.0,3.0,46.0,978.0,-7.0,60.0,3257,2972,143,
216,19.04699993133545,0.08299994468688965,12.048200800282656,11.340368602860362,2.5968816864387024e-38,988.0,-24.0,87.0,-36.75,-24.0625,-3.875,-65.125,1.6875,-3.875,61.9375,86.4375,0.4375,-0.35443115234375,-0.5863037109375,-0.37164306640625,0.64019775390625,16.0,-16.0,20.0,978.0,-8.0,60.0,3261,2956,137,
217,19.132999897003174,0.08599996566772461,11.627911618751906,11.341661065601583,2.5968816864387024e-38,990.0,9.0,91.0,-38.6875,-24.0625,-7.25,-65.0625,2.1875,-3.875,66.9375,86.3125,0.5,-0.38287353515625,-0.56744384765625,-0.40216064453125,0.6080322265625,11.0,18.0,29.0,978.0,-8.0,61.0,3221,2963,173,
218,19.22499990463257,0.09200000762939453,10.869564315997886,11.33940187679634,2.5967381934759555e-38,989.0,-41.0,48.0,-38.25,-23.0,-8.875,-63.625,-3.4375,-3.625,72.5,86.3125,0.5,-0.41046142578125,-0.5479736328125,-0.4312744140625,0.587646484375,10.0,-31.0,-12.0,978.0,-9.0,60.0,3197,3053,201,
219,19.32100009918213,0.09600019454956055,10.416645556731089,11.334816980269588,2.5967381934759555e-38,981.0,0.0,114.0,-39.375,-23.375,-12.25,-64.625,6.25,-3.1875,78.625,86.25,0.625,-0.439697265625,-0.52392578125,-0.46246337890625,0.56414794921875,2.0,-19.0,42.0,978.0,-11.0,62.0,3230,3162,238,
220,19.412999868392944,0.09199976921081543,10.869592484612893,11.33261224393199,2.5967381934759555e-38,998.0,-25.0,71.0,-40.5625,-21.5625,-16.1875,-63.5,2.125,-3.3125,84.125,86.3125,0.6875,-0.46533203125,-0.50225830078125,-0.4884033203125,0.54095458984375,19.0,-13.0,10.0,978.0,-12.0,61.0,3179,3204,261,
221,19.50499987602234,0.09200000762939453,10.869564315997886,11.33042816737862,2.5967381934759555e-38,995.0,-3.0,97.0,-42.375,-19.0625,-18.875,-63.1875,1.25,-3.8125,89.5625,86.25,0.75,-0.4891357421875,-0.478759765625,-0.5137939453125,0.5172119140625,16.0,9.0,35.0,978.0,-13.0,61.0,3031,3207,240,
222,19.596999883651733,0.09200000762939453,10.869564315997886,11.328264597541661,2.595518503292607e-38,995.0,-19.0,109.0,-42.375,-16.875,-19.6875,-63.0,2.1875,-3.9375,95.625,86.25,0.8125,-0.5140380859375,-0.4517822265625,-0.5404052734375,0.489501953125,17.0,-4.0,47.0,978.0,-14.0,62.0,2910,3257,147,
223,19.687999963760376,0.09100008010864258,10.989001315231004,11.326696485700692,2.595518503292607e-38,984.0,-11.0,115.0,-43.5,-15.375,-20.875,-62.1875,1.25,-3.8125,101.0,86.1875,0.875,-0.534912109375,-0.4263916015625,-0.56304931640625,0.4637451171875,6.0,4.0,52.0,978.0,-15.0,62.0,2877,3210,220,
224,19.77899980545044,0.09099984169006348,10.989030106292951,11.325142939648192,2.595518503292607e-38,1000.0,-19.0,96.0,-44.5,-12.875,-21.75,-62.0625,0.625,-3.375,106.375,86.1875,0.9375,-0.55474853515625,-0.4007568359375,-0.5838623046875,0.43682861328125,21.0,-2.0,34.0,978.0,-16.0,62.0,2869,3155,351,
225,19.869999885559082,0.09100008010864258,10.989001315231004,11.323603487462686,2.595518503292607e-38,1003.0,-1.0,91.0,-45.25,-8.375,-22.6875,-61.0625,-2.125,-3.375,111.6875,86.1875,1.0,-0.572998046875,-0.37408447265625,-0.60345458984375,0.4093017578125,24.0,15.0,28.0,978.0,-17.0,62.0,2861,3151,469,
226,19.960000038146973,0.09000015258789062,11.111092273131861,11.32264526894165,2.5960924751435946e-38,1000.0,-25.0,72.0,-46.375,-7.5625,-22.375,-61.0,-2.4375,-3.5,116.9375,86.1875,1.0,-0.59002685546875,-0.346923828125,-0.6214599609375,0.381103515625,22.0,-7.0,10.0,978.0,-18.0,61.0,2882,3145,567,
227,20.050999879837036,0.09099984169006348,10.989030106292951,11.321131183501105,2.5960924751435946e-38,1007.0,-28.0,95.0,-47.6875,-5.375,-23.1875,-61.0,3.3125,-3.625,122.125,86.1875,1.0625,-0.60540771484375,-0.31903076171875,-0.6383056640625,0.3525390625,28.0,-9.0,33.0,978.0,-19.0,62.0,2914,3145,609,
228,20.14199995994568,0.09100008010864258,10.989001315231004,11.319630645089868,2.5960924751435946e-38,1000.0,-31.0,91.0,-47.375,-4.25,-23.6875,-58.9375,-0.6875,-3.5625,127.3125,86.25,1.125,-0.619873046875,-0.29132080078125,-0.65313720703125,0.322998046875,21.0,-12.0,30.0,978.0,-19.0,60.0,2925,3149,652,
229,20.234999895095825,0.09299993515014648,10.752695670007947,11.31702501542887,2.5960924751435946e-38,984.0,-30.0,94.0,-47.6875,-1.1875,-21.75,-58.625,-0.625,-3.375,133.0625,86.1875,1.125,-0.63360595703125,-0.25946044921875,-0.66717529296875,0.2900390625,17.0,-4.0,40.0,978.0,-20.0,61.0,2832,3168,724,
230,20.325999975204468,0.09100008010864258,10.989001315231004,11.315556443991698,2.597527404771063e-38,992.0,-32.0,96.0,-47.5,0.0,-20.0625,-58.9375,1.9375,-2.9375,138.125,86.1875,1.1875,-0.6448974609375,-0.23046875,-0.6806640625,0.26007080078125,13.0,-10.0,36.0,978.0,-21.0,60.0,3022,3215,699,
231,20.41700005531311,0.09100008010864258,10.989001315231004,11.314100963617665,2.597527404771063e-38,995.0,-28.0,84.0,-47.5,2.25,-19.375,-58.625,1.125,-3.125,143.1875,86.1875,1.25,-0.65472412109375,-0.20123291015625,-0.69134521484375,0.2298583984375,16.0,-5.0,24.0,978.0,-22.0,60.0,3002,3187,637,
232,20.51099991798401,0.09399986267089844,10.638313414361951,11.311003896820399,2.597527404771063e-38,997.0,-29.0,83.0,-46.75,3.875,-17.0,-58.0,-1.125,-3.3125,148.1875,86.1875,1.3125,-0.66326904296875,-0.171875,-0.7005615234375,0.1993408203125,18.0,-6.0,23.0,978.0,-23.0,59.0,3036,3107,494,
233,20.608999967575073,0.09800004959106445,10.204076469071287,11.30574022837536,2.597527404771063e-38,992.0,-23.0,88.0,-46.75,4.75,-15.0,-57.875,1.25,-3.4375,153.75,86.25,1.375,-0.6710205078125,-0.13909912109375,-0.70928955078125,0.1650390625,13.0,0.0,28.0,978.0,-23.0,59.0,2839,3113,410,
234,20.700000047683716,0.09100008010864258,10.989001315231004,11.3043478000467,2.597957883659304e-38,984.0,-21.0,83.0,-45.5625,4.875,-13.5,-57.3125,2.0,-3.25,158.75,86.25,1.375,-0.6766357421875,-0.10955810546875,-0.7156982421875,0.134033203125,5.0,2.0,24.0,978.0,-24.0,59.0,2719,3141,358,
235,20.79099988937378,0.09099984169006348,10.989030106292951,11.302967690366245,2.597957883659304e-38,986.0,-37.0,98.0,-45.25,5.6875,-12.6875,-57.375,0.8125,-3.1875,163.75,86.25,1.375,-0.68115234375,-0.07989501953125,-0.72052001953125,0.10284423828125,8.0,-13.0,40.0,978.0,-24.0,58.0,2647,3182,331,
236,20.88100004196167,0.09000015258789062,11.111092273131861,11.3021406793613,2.597957883659304e-38,987.0,-33.0,95.0,-43.75,6.1875,-9.875,-57.6875,1.375,-3.1875,168.6875,86.3125,1.4375,-0.6844482421875,-0.05010986328125,-0.72381591796875,0.071533203125,9.0,-8.0,38.0,978.0,-24.0,56.0,2601,3175,232,
237,20.97099995613098,0.08999991416931152,11.11112170750251,11.301320895321055,2.597957883659304e-38,994.0,-36.0,86.0,-42.5625,5.5,-9.5,-57.625,0.25,-3.25,173.625,86.375,1.4375,-0.68634033203125,-0.020263671875,-0.72589111328125,0.04022216796875,15.0,-11.0,30.0,978.0,-25.0,55.0,2594,3154,148,
238,21.061999797821045,0.09099984169006348,10.989030106292951,11.29997162114787,2.597025179401449e-38,992.0,-32.0,84.0,-41.5625,6.0,-9.0625,-57.1875,-0.4375,-3.0625,178.5625,86.375,1.4375,-0.686767578125,0.00970458984375,-0.72674560546875,0.0087890625,13.0,-6.0,28.0,978.0,-25.0,55.0,2604,2999,-76,
239,21.152999877929688,0.09100008010864258,10.989001315231004,11.298633828734825,2.597025179401449e-38,992.0,-26.0,79.0,-39.375,5.375,-8.5625,-57.1875,0.625,-3.0,183.5625,86.4375,1.5,-0.68609619140625,0.0396728515625,-0.72607421875,-0.02276611328125,14.0,-1.0,25.0,978.0,-25.0,54.0,2634,2893,-223,
240,21.24399995803833,0.09100008010864258,10.989001315231004,11.297307497366498,2.597025179401449e-38,990.0,-35.0,77.0,-38.6875,5.375,-8.5,-57.375,0.4375,-3.25,189.125,86.5625,1.5,-0.68402099609375,0.0728759765625,-0.7235107421875,-0.05780029296875,12.0,-3.0,27.0,978.0,-25.0,52.0,2666,2917,-233,
241,21.334999799728394,0.09099984169006348,10.989030106292951,11.295992606621354,2.597025179401449e-38,992.0,-32.0,77.0,-38.6875,6.5,-8.0,-57.625,1.5,-3.4375,194.125,86.625,1.4375,-0.6806640625,0.1026611328125,-0.7198486328125,-0.08929443359375,13.0,-6.0,25.0,978.0,-25.0,51.0,2690,3127,-66,
242,21.42899990081787,0.09400010108947754,10.63828643171471,11.293107523453005,2.5972404188455695e-38,992.0,-37.0,66.0,-36.0625,6.0625,-8.875,-57.75,-0.375,-3.5625,199.1875,86.6875,1.4375,-0.67596435546875,0.13232421875,-0.71478271484375,-0.12091064453125,13.0,-12.0,16.0,979.0,-25.0,50.0,2709,3135,-79,
243,21.51699995994568,0.08800005912780762,11.363628728335758,11.293395940528388,2.5972404188455695e-38,992.0,-22.0,64.0,-36.375,6.75,-9.5,-57.9375,-0.8125,-3.375,204.25,86.75,1.4375,-0.669921875,0.16192626953125,-0.70831298828125,-0.15240478515625,8.0,1.0,-2.0,979.0,-24.0,48.0,2724,3309,78,
244,21.60800004005432,0.09100008010864258,10.989001315231004,11.292114010908092,2.5972404188455695e-38,984.0,-24.0,75.0,-34.875,6.6875,-9.875,-58.5,0.125,-3.0,208.8125,86.8125,1.375,-0.66351318359375,0.18817138671875,-0.70135498046875,-0.18017578125,5.0,0.0,27.0,979.0,-24.0,47.0,2744,3443,224,
245,21.698999881744385,0.09099984169006348,10.989030106292951,11.290842957519036,2.5972404188455695e-38,994.0,-31.0,80.0,-35.25,7.0,-11.0,-59.0625,0.625,-3.25,213.9375,86.875,1.375,-0.65478515625,0.217529296875,-0.69232177734375,-0.2113037109375,15.0,-7.0,33.0,979.0,-24.0,47.0,2809,3539,352,
246,21.789999961853027,0.09100008010864258,10.989001315231004,11.289582397001533,2.5972404188455695e-38,992.0,-16.0,63.0,-36.375,9.5,-10.1875,-59.1875,-0.5,-3.375,219.625,86.9375,1.375,-0.64349365234375,0.2498779296875,-0.68060302734375,-0.24554443359375,13.0,-17.0,32.0,979.0,-23.0,46.0,2856,3617,464,
247,21.880000114440918,0.09000015258789062,11.111092273131861,11.288848204209042,2.596666446994582e-38,990.0,-20.0,51.0,-37.875,10.0625,-11.75,-59.5,-0.0625,-3.625,224.875,87.0625,1.3125,-0.632080078125,0.27862548828125,-0.66827392578125,-0.276123046875,16.0,-1.0,15.0,979.0,-22.0,44.0,2843,3678,583,
249,22.013999938964844,0.051000118255615234,19.607797671918096,11.31098395068446,2.596666446994582e-38,996.0,-36.0,57.0,-41.5625,14.0,-11.75,-59.9375,-0.75,-3.5625,231.875,87.125,1.25,-0.61456298828125,0.31622314453125,-0.6497802734375,-0.31634521484375,14.0,5.0,13.0,979.0,-21.0,43.0,2840,3709,696,
250,22.09599995613098,0.0820000171661377,12.195119398254892,11.314265047807101,2.596666446994582e-38,989.0,-25.0,57.0,-42.0,15.0,-12.25,-60.5,1.5625,-3.4375,237.1875,87.1875,1.1875,-0.599853515625,0.343994140625,-0.6341552734375,-0.34600830078125,10.0,-5.0,14.0,979.0,-20.0,42.0,2847,3731,772,
251,22.185999870300293,0.08999991416931152,11.11112170750251,11.313440974819706,2.5973839118083164e-38,995.0,-41.0,70.0,-43.5,17.875,-6.75,-60.75,0.625,-3.375,243.1875,87.25,1.125,-0.581787109375,0.37420654296875,-0.6151123046875,-0.37835693359375,14.0,6.0,9.0,979.0,-19.0,42.0,2828,3746,809,
252,22.281999826431274,0.09599995613098145,10.416671426762,11.309577325329366,2.5973839118083164e-38,990.0,-38.0,35.0,-44.5,18.5625,-3.0,-61.75,2.1875,-3.4375,248.5625,87.3125,1.0625,-0.56414794921875,0.40087890625,-0.59637451171875,-0.40667724609375,10.0,-5.0,10.0,979.0,-18.0,41.0,2747,3776,880,
253,22.375999927520752,0.09400010108947754,10.63828643171471,11.30675727652419,2.5973839118083164e-38,988.0,-12.0,41.0,-43.75,20.25,1.6875,-61.8125,0.375,-3.4375,254.625,87.375,1.0,-0.54296875,0.429443359375,-0.5738525390625,-0.43756103515625,10.0,16.0,26.0,979.0,-17.0,40.0,2711,3788,931,
254,22.47000002861023,0.09400010108947754,10.63828643171471,11.303960822278198,2.5973839118083164e-38,998.0,-38.0,67.0,-41.0625,19.25,6.6875,-62.125,-3.0625,-3.5625,259.5,87.4375,0.9375,-0.52471923828125,0.4517822265625,-0.5546875,-0.46142578125,19.0,-22.0,27.0,979.0,-16.0,40.0,2718,3759,960,
255,22.560999870300293,0.09099984169006348,10.989030106292951,11.30269054855528,2.596666446994582e-38,1002.0,-37.0,94.0,-37.0625,18.375,10.5625,-63.4375,0.875,-3.5,265.0,87.4375,0.9375,-0.502685546875,0.47607421875,-0.531982421875,-0.48748779296875,22.0,-21.0,54.0,979.0,-16.0,40.0,2800,3716,963,
256,22.651999950408936,0.09100008010864258,10.989001315231004,11.301430362018804,2.596666446994582e-38,988.0,-39.0,64.0,-34.0625,17.875,12.875,-63.125,-0.5,-3.5625,271.125,87.4375,0.875,-0.47698974609375,0.50201416015625,-0.5050048828125,-0.51519775390625,8.0,-24.0,24.0,979.0,-15.0,40.0,2942,3695,862,
257,22.745999813079834,0.09399986267089844,10.638313414361951,11.298689972388685,2.596666446994582e-38,987.0,-56.0,83.0,-31.875,16.75,14.5,-63.9375,-0.1875,-3.75,276.6875,87.4375,0.875,-0.45208740234375,0.524169921875,-0.47967529296875,-0.53924560546875,8.0,-41.0,42.0,979.0,-14.0,40.0,2961,3686,815,
258,22.83899974822998,0.09299993515014648,10.752695670007947,11.296466694868936,2.596666446994582e-38,993.0,-32.0,68.0,-28.5625,14.5625,14.375,-63.8125,-3.1875,-3.6875,282.9375,87.5,0.75,-0.42388916015625,0.54766845703125,-0.44927978515625,-0.56439208984375,1.0,-11.0,-6.0,979.0,-13.0,40.0,3026,3654,663,
259,22.930999755859375,0.09200000762939453,10.869564315997886,11.294753946949905,2.596666446994582e-38,996.0,-11.0,70.0,-24.5625,14.6875,16.75,-64.375,1.625,-3.4375,288.5625,87.5,0.6875,-0.39678955078125,0.56732177734375,-0.421142578125,-0.58599853515625,17.0,1.0,2.0,979.0,-12.0,40.0,3088,3500,580,
260,23.032999992370605,0.10200023651123047,9.803898835959048,11.288151785964562,2.5980296301406773e-38,975.0,-42.0,106.0,-21.875,13.1875,14.375,-64.375,3.1875,-3.375,294.875,87.5,0.625,-0.36572265625,0.5880126953125,-0.38824462890625,-0.60809326171875,-4.0,-30.0,66.0,979.0,-11.0,40.0,3088,3506,186,
261,23.128000020980835,0.09500002861022949,10.526312619366108,11.28502247333236,2.5980296301406773e-38,985.0,36.0,39.0,-21.1875,9.375,14.75,-64.8125,0.25,-3.1875,301.1875,87.5625,0.5625,-0.33355712890625,0.60699462890625,-0.35406494140625,-0.62841796875,26.0,18.0,19.0,979.0,-10.0,39.0,3180,3462,22,
262,23.2189998626709,0.09099984169006348,10.989030106292951,11.283862420845113,2.5980296301406773e-38,991.0,-37.0,43.0,-19.75,10.25,14.375,-64.6875,0.625,-3.6875,306.25,87.5625,0.5,-0.306884765625,0.6207275390625,-0.32586669921875,-0.64373779296875,11.0,-28.0,2.0,979.0,-9.0,40.0,3223,3526,36,
263,23.30999994277954,0.09100008010864258,10.989001315231004,11.282711310407633,2.5980296301406773e-38,996.0,-15.0,62.0,-19.75,8.375,13.5625,-64.8125,-0.0625,-3.6875,312.625,87.5,0.4375,-0.2723388671875,0.63629150390625,-0.28973388671875,-0.66107177734375,17.0,-20.0,45.0,979.0,-8.0,41.0,3261,3580,70,
264,23.401000022888184,0.09100008010864258,10.989001315231004,11.28156915267661,2.5968816864387024e-38,987.0,-3.0,60.0,-19.5,6.375,13.1875,-66.0,1.9375,-3.5,318.375,87.4375,0.4375,-0.2403564453125,0.648681640625,-0.25634765625,-0.67510986328125,7.0,4.0,18.0,979.0,-7.0,42.0,3196,3544,193,
265,23.492000102996826,0.09100008010864258,10.989001315231004,11.280435843612757,2.5968816864387024e-38,998.0,-25.0,53.0,-19.875,8.1875,14.375,-65.625,-2.875,-4.125,324.1875,87.4375,0.375,-0.2080078125,0.65960693359375,-0.221923828125,-0.68731689453125,19.0,-19.0,11.0,979.0,-6.0,42.0,3153,3502,250,
266,23.57699990272522,0.08499979972839355,11.76473360167174,11.28218183388352,2.5968816864387024e-38,983.0,-18.0,65.0,-21.0625,5.875,13.5,-66.5625,1.75,-4.0,329.375,87.4375,0.3125,-0.1785888671875,0.6678466796875,-0.19073486328125,-0.69696044921875,4.0,-12.0,22.0,979.0,-5.0,43.0,3151,3415,226,
267,23.664999961853027,0.08800005912780762,11.363628728335758,11.282484700206746,2.5968816864387024e-38,990.0,-19.0,36.0,-23.5625,3.875,13.0,-65.875,-1.8125,-4.0,335.1875,87.375,0.25,-0.14483642578125,0.67559814453125,-0.155029296875,-0.7060546875,10.0,-14.0,-7.0,979.0,-4.0,44.0,3206,3333,231,
268,23.762999773025513,0.09799981117248535,10.204101294031496,11.27803739257782,2.596953432920076e-38,994.0,-7.0,90.0,-24.0,2.6875,13.6875,-66.75,1.625,-3.5,341.6875,87.3125,0.25,-0.10662841796875,0.68212890625,-0.1148681640625,-0.7142333984375,15.0,-2.0,44.0,979.0,-4.0,45.0,3280,3260,264,
269,23.848999977111816,0.08600020408630371,11.627879382663684,11.279298933211567,2.596953432920076e-38,992.0,-34.0,55.0,-24.375,-0.6875,13.6875,-66.6875,-3.125,-3.75,347.5,87.25,0.25,-0.07177734375,0.68634033203125,-0.0784912109375,-0.719482421875,12.0,-30.0,8.0,979.0,-4.0,47.0,3343,3209,278,
270,23.936000108718872,0.08700013160705566,11.494235485948398,11.280080162668884,2.596953432920076e-38,1001.0,16.0,76.0,-25.0625,-2.0625,14.5625,-67.5,-0.4375,-3.875,352.6875,87.125,0.25,-0.04046630859375,0.68841552734375,-0.04583740234375,-0.72271728515625,21.0,21.0,28.0,979.0,-4.0,47.0,3396,3184,278,
271,24.026000022888184,0.08999991416931152,11.11112170750251,11.279447254717137,2.596953432920076e-38,985.0,-22.0,37.0,-27.375,-2.5,13.6875,-66.625,0.75,-4.0625,358.5625,87.0625,0.1875,-0.00531005859375,0.6890869140625,-0.00872802734375,-0.724609375,6.0,-17.0,-11.0,979.0,-4.0,49.0,3401,3171,285,
272,24.11899995803833,0.09299993515014648,10.752695670007947,11.27741616456815,2.5970969258828227e-38,987.0,0.0,80.0,-28.25,-4.75,13.375,-67.25,0.375,-4.1875,5.125,87.0,0.1875,0.03350830078125,0.68780517578125,0.03277587890625,-0.724365234375,7.0,4.0,29.0,979.0,-3.0,50.0,3351,3160,287,
273,24.209999799728394,0.09099984169006348,10.989030106292951,11.276332187456802,2.5970969258828227e-38,978.0,-45.0,89.0,-29.5,-7.25,11.0,-67.4375,1.0,-3.75,11.0,87.0,0.1875,0.06866455078125,0.68499755859375,0.06976318359375,-0.721923828125,0.0,-42.0,38.0,979.0,-3.0,51.0,3315,3155,271,
274,24.300999879837036,0.09100008010864258,10.989001315231004,11.275256218051446,2.5970969258828227e-38,997.0,-30.0,80.0,-31.25,-8.75,12.25,-67.1875,0.1875,-3.5625,16.8125,86.9375,0.25,0.10382080078125,0.68017578125,0.1063232421875,-0.71783447265625,18.0,-26.0,28.0,979.0,-4.0,52.0,3294,3169,281,
275,24.39199995994568,0.09100008010864258,10.989001315231004,11.274188276958837,2.5970969258828227e-38,993.0,-9.0,79.0,-31.25,-12.1875,11.5,-67.0625,0.9375,-3.8125,22.625,86.8125,0.25,0.13861083984375,0.6734619140625,0.14276123046875,-0.71197509765625,14.0,-4.0,26.0,979.0,-5.0,53.0,3268,3231,355,
276,24.483999967575073,0.09200000762939453,10.869564315997886,11.272667879656732,2.5967381934759555e-38,984.0,-26.0,51.0,-32.5,-13.25,10.75,-66.75,2.0625,-3.75,28.5,86.75,0.25,0.17279052734375,0.66510009765625,0.17889404296875,-0.7041015625,5.0,-21.0,-2.0,979.0,-5.0,54.0,3233,3282,449,
277,24.574999809265137,0.09099984169006348,10.989030106292951,11.271617584939591,2.5967381934759555e-38,982.0,-43.0,67.0,-33.1875,-18.0,7.5625,-66.5,-1.5625,-4.375,34.375,86.75,0.25,0.206298828125,0.65533447265625,0.21484375,-0.69415283203125,3.0,-38.0,12.0,979.0,-4.0,54.0,3268,3174,309,
278,24.667999982833862,0.09300017356872559,10.752668104011834,11.269661107242442,2.5967381934759555e-38,979.0,-17.0,99.0,-34.6875,-18.75,5.375,-66.875,1.375,-4.1875,40.875,86.6875,0.25,0.24285888671875,0.64208984375,0.25408935546875,-0.68133544921875,0.0,-13.0,42.0,979.0,-4.0,56.0,3281,3090,213,
279,24.758999824523926,0.09099984169006348,10.989030106292951,11.26862966910517,2.5967381934759555e-38,998.0,-20.0,80.0,-35.375,-20.1875,3.5,-67.1875,3.375,-3.5,46.625,86.625,0.3125,0.275390625,0.628662109375,0.28814697265625,-0.667724609375,19.0,-14.0,23.0,979.0,-5.0,56.0,3296,3021,162,
280,24.848999977111816,0.09000015258789062,11.111092273131861,11.268059087202921,2.596666446994582e-38,994.0,-32.0,70.0,-37.25,-22.5,0.75,-66.0625,-3.125,-3.5,52.375,86.5625,0.375,0.3072509765625,0.6134033203125,0.3212890625,-0.6527099609375,15.0,-25.0,12.0,978.0,-6.0,57.0,3306,2978,107,
281,24.93400001525879,0.08500003814697266,11.764700602497504,11.269752138767837,2.596666446994582e-38,994.0,-28.0,93.0,-36.875,-23.1875,-1.5625,-66.625,0.8125,-3.3125,57.4375,86.5,0.4375,0.33465576171875,0.59814453125,0.3502197265625,-0.638427734375,15.0,-20.0,34.0,978.0,-8.0,59.0,3287,2949,86,
282,25.01699995994568,0.08299994468688965,12.048200800282656,11.272334830375573,2.596666446994582e-38,994.0,-19.0,91.0,-37.25,-24.0,-5.375,-65.6875,-1.375,-4.0625,63.1875,86.375,0.5,0.361083984375,0.58184814453125,0.37847900390625,-0.62274169921875,10.0,4.0,43.0,978.0,-9.0,60.0,3280,2944,112,
283,25.102999925613403,0.08599996566772461,11.627911618751906,11.27355299520381,2.596666446994582e-38,1000.0,-14.0,75.0,-39.1875,-22.5625,-8.5,-65.6875,1.0625,-4.0625,68.25,86.375,0.5625,0.3900146484375,0.56304931640625,0.408935546875,-0.60302734375,21.0,-5.0,14.0,978.0,-9.0,60.0,3214,2974,158,
284,25.18400001525879,0.08100008964538574,12.345665348988488,11.277001263815384,2.596666446994582e-38,981.0,-39.0,88.0,-39.5,-23.25,-10.0,-65.5625,3.5,-3.5625,73.3125,86.25,0.625,0.4146728515625,0.54443359375,0.43536376953125,-0.58489990234375,2.0,-28.0,26.0,978.0,-10.0,62.0,3198,3087,176,
285,25.2739999294281,0.08999991416931152,11.11112170750251,11.276410571963192,2.5977426442151835e-38,979.0,-46.0,69.0,-40.25,-21.5625,-13.0625,-64.4375,-2.875,-3.6875,78.9375,86.25,0.625,0.4412841796875,0.52294921875,0.46380615234375,-0.562744140625,0.0,-35.0,7.0,978.0,-11.0,62.0,3264,3200,187,
286,25.365000009536743,0.09100008010864258,10.989001315231004,11.275379455646348,2.5977426442151835e-38,983.0,-19.0,108.0,-41.0,-21.25,-16.25,-65.4375,4.875,-3.4375,84.5625,86.1875,0.75,0.4669189453125,0.4998779296875,0.4908447265625,-0.53961181640625,4.0,-6.0,45.0,978.0,-12.0,62.0,3120,3204,230,
287,25.454999923706055,0.08999991416931152,11.11112170750251,11.27479869810249,2.5977426442151835e-38,999.0,-35.0,84.0,-42.5,-18.75,-19.5,-64.5,1.3125,-3.625,90.125,86.25,0.8125,0.491455078125,0.47613525390625,0.51617431640625,-0.51507568359375,20.0,-21.0,22.0,978.0,-14.0,62.0,2975,3216,206,
290,25.64800000190735,0.04500007629394531,22.222184546263723,11.306924515690648,2.5977426442151835e-38,992.0,-36.0,75.0,-43.5625,-14.25,-21.75,-63.625,0.1875,-4.0625,101.8125,86.1875,0.875,0.5404052734375,0.4197998046875,0.5684814453125,-0.45672607421875,15.0,-6.0,41.0,978.0,-15.0,62.0,2839,3291,79,
291,25.738999843597412,0.09099984169006348,10.989030106292951,11.305800604850868,2.5977426442151835e-38,993.0,-31.0,78.0,-45.0,-11.5,-23.75,-62.3125,-2.0,-3.9375,107.9375,86.25,0.9375,0.56024169921875,0.39324951171875,0.58953857421875,-0.4288330078125,14.0,-15.0,16.0,978.0,-16.0,61.0,2833,3228,254,
292,25.832000017166138,0.09300017356872559,10.752668104011834,11.303809221351706,2.5977426442151835e-38,985.0,-36.0,86.0,-46.0625,-8.5,-23.0625,-62.875,4.875,-3.3125,113.375,86.25,1.0,0.57867431640625,0.36572265625,0.60919189453125,-0.4002685546875,6.0,-19.0,25.0,978.0,-17.0,61.0,2843,3191,407,
293,25.921000003814697,0.08899998664855957,11.235956741755135,11.30357624925274,2.5977426442151835e-38,1005.0,-7.0,102.0,-47.5625,-6.875,-23.5625,-62.625,-3.625,-3.375,118.75,86.3125,1.0625,0.59600830078125,0.33782958984375,0.626953125,-0.3709716796875,27.0,11.0,41.0,978.0,-18.0,60.0,2867,3143,490,
294,26.013999938964844,0.09299993515014648,10.752695670007947,11.301606853609416,2.59745565828969e-38,992.0,-37.0,57.0,-47.1875,-3.875,-21.1875,-61.125,-4.5625,-3.6875,123.5,86.3125,1.0625,0.60992431640625,0.31243896484375,0.64166259765625,-0.34442138671875,13.0,-18.0,-2.0,978.0,-18.0,59.0,2903,3143,536,
295,26.104000091552734,0.09000015258789062,11.111092273131861,11.300950006334935,2.59745565828969e-38,986.0,-28.0,102.0,-46.75,-2.375,-21.75,-61.25,2.375,-3.8125,128.875,86.3125,1.125,0.62396240234375,0.28326416015625,0.6571044921875,-0.3140869140625,11.0,-12.0,25.0,978.0,-19.0,59.0,2841,3151,606,
296,26.197999954223633,0.09399986267089844,10.638313414361951,11.298572429849896,2.59745565828969e-38,995.0,-33.0,111.0,-48.6875,-0.5,-20.5,-61.0625,0.5625,-3.6875,134.75,86.375,1.125,0.63818359375,0.250732421875,0.67205810546875,-0.27972412109375,16.0,-13.0,52.0,978.0,-19.0,58.0,3006,3154,579,
297,26.289000034332275,0.09100008010864258,10.989001315231004,11.29750084111724,2.59745565828969e-38,982.0,-25.0,51.0,-48.25,1.0625,-19.375,-60.5,-4.375,-3.125,140.625,86.375,1.1875,0.6505126953125,0.217529296875,0.68511962890625,-0.2451171875,13.0,-15.0,23.0,978.0,-20.0,57.0,3046,3185,560,
298,26.380000114440918,0.09100008010864258,10.989001315231004,11.296436645459645,2.5981013766220507e-38,987.0,-24.0,64.0,-48.25,3.0625,-18.1875,-60.0625,-1.875,-3.0,145.8125,86.375,1.25,0.66009521484375,0.18719482421875,0.69537353515625,-0.2137451171875,15.0,-22.0,11.0,978.0,-21.0,57.0,3023,3095,457,
299,26.47099995613098,0.09099984169006348,10.989030106292951,11.295379868366032,2.5981013766220507e-38,992.0,-27.0,102.0,-47.875,4.6875,-16.1875,-59.375,-0.8125,-3.625,151.0,86.3125,1.25,0.6678466796875,0.15643310546875,0.70452880859375,-0.18212890625,15.0,-6.0,26.0,978.0,-22.0,57.0,2931,3059,345,
300,26.56500005722046,0.09400010108947754,10.63828643171471,11.293054746990634,2.5981013766220507e-38,985.0,-30.0,68.0,-47.1875,4.5,-14.25,-59.375,1.625,-3.625,155.5625,86.375,1.3125,0.67376708984375,0.12921142578125,0.71112060546875,-0.1536865234375,7.0,-7.0,10.0,978.0,-22.0,57.0,2788,3076,292,
303,26.76800012588501,0.04700016975402832,21.27651889840869,11.319485900143695,2.59745565828969e-38,994.0,-27.0,79.0,-44.1875,5.75,-10.6875,-59.4375,1.4375,-3.1875,168.1875,86.4375,1.3125,0.6844482421875,0.05419921875,0.72320556640625,-0.07452392578125,6.0,-9.0,27.0,978.0,-23.0,56.0,2621,3132,162,
304,26.85699987411499,0.08899974822998047,11.235986841400297,11.319209197785261,2.59745565828969e-38,988.0,-27.0,82.0,-42.5,6.25,-9.5,-58.9375,0.8125,-2.9375,172.75,86.4375,1.375,0.68646240234375,0.02667236328125,0.7252197265625,-0.04583740234375,9.0,-3.0,27.0,978.0,-23.0,54.0,2607,3270,269,
305,26.944999933242798,0.08800005912780762,11.363628728335758,11.319354268162867,2.59745565828969e-38,993.0,-33.0,83.0,-41.6875,6.0,-8.6875,-58.8125,0.125,-3.125,177.8125,86.5,1.4375,0.687255859375,-0.00439453125,0.72625732421875,-0.01361083984375,14.0,-8.0,29.0,978.0,-24.0,54.0,2614,3158,113,
306,27.049000024795532,0.10400009155273438,9.615376150827128,11.312802681041555,2.59745565828969e-38,986.0,-33.0,71.0,-40.5625,6.6875,-7.375,-58.6875,0.5625,-3.5,183.5,86.5625,1.4375,0.6866455078125,-0.0386962890625,0.72564697265625,0.02252197265625,7.0,-8.0,18.0,978.0,-24.0,53.0,2629,3055,-36,
307,27.14299988746643,0.09399986267089844,10.638313414361951,11.31046683390956,2.599608052730893e-38,993.0,-26.0,75.0,-39.875,6.0625,-9.0625,-58.875,0.5,-3.5,189.25,86.625,1.375,0.68438720703125,-0.07275390625,0.72308349609375,0.0587158203125,14.0,-2.0,24.0,979.0,-24.0,51.0,2640,3116,8,
308,27.234999895095825,0.09200000762939453,10.869564315997886,11.308977462322709,2.599608052730893e-38,993.0,-43.0,67.0,-38.375,7.875,-9.0,-58.8125,0.1875,-3.5625,194.4375,86.6875,1.375,0.680908203125,-0.103271484375,0.71923828125,0.09124755859375,14.0,-19.0,17.0,979.0,-23.0,50.0,2644,3266,129,
309,27.33399987220764,0.0989999771118164,10.101012436301284,11.304602379623978,2.599608052730893e-38,992.0,-30.0,56.0,-37.25,5.6875,-7.75,-59.25,1.0,-3.1875,200.1875,86.75,1.375,0.67529296875,-0.13720703125,0.71343994140625,0.12713623046875,13.0,-7.0,23.0,979.0,-23.0,49.0,2674,3360,201,
310,27.42899990081787,0.09500002861022949,10.526312619366108,11.301906781907732,2.599608052730893e-38,992.0,-25.0,57.0,-35.375,6.375,-9.5625,-59.375,-0.4375,-3.25,205.9375,86.875,1.3125,0.66815185546875,-0.17108154296875,0.70556640625,0.16278076171875,14.0,-13.0,7.0,979.0,-23.0,47.0,2706,3461,292,
311,27.518999814987183,0.08999991416931152,11.11112170750251,11.301282826079515,2.5965947005132087e-38,993.0,-19.0,66.0,-36.5625,7.75,-9.0625,-60.1875,2.4375,-3.25,210.625,86.875,1.3125,0.660888671875,-0.197998046875,0.6981201171875,0.1912841796875,14.0,3.0,19.0,979.0,-23.0,47.0,2739,3547,393,
312,27.608999967575073,0.09000015258789062,11.111092273131861,11.300662840610785,2.5965947005132087e-38,991.0,-11.0,64.0,-37.75,9.0625,-11.375,-60.3125,1.1875,-3.4375,215.875,86.9375,1.3125,0.65155029296875,-0.22796630859375,0.68829345703125,0.22308349609375,12.0,10.0,18.0,979.0,-22.0,46.0,2813,3611,471,
313,27.70199990272522,0.09299993515014648,10.752695670007947,11.298823229336891,2.5965947005132087e-38,988.0,-29.0,63.0,-37.0,9.5,-11.375,-60.625,1.0,-3.625,221.1875,87.0625,1.25,0.64080810546875,-0.257568359375,0.6768798828125,0.25469970703125,9.0,-7.0,18.0,979.0,-21.0,45.0,2823,3673,580,
314,27.79200005531311,0.09000015258789062,11.111092273131861,11.29821529127305,2.5965947005132087e-38,991.0,-21.0,58.0,-38.875,10.75,-12.1875,-61.0,0.5,-3.375,227.125,87.125,1.1875,0.62713623046875,-0.2901611328125,0.66241455078125,0.289306640625,12.0,0.0,14.0,979.0,-21.0,44.0,2829,3709,697,
315,27.880000114440918,0.08800005912780762,11.363628728335758,11.298421761370095,2.597957883659304e-38,988.0,-42.0,51.0,-41.375,14.375,-11.375,-61.375,-0.0625,-3.5625,232.5625,87.1875,1.125,0.61346435546875,-0.31903076171875,0.647705078125,0.32000732421875,13.0,-8.0,16.0,979.0,-20.0,42.0,2842,3731,784,
316,27.96299982070923,0.08299970626831055,12.048235409018574,11.300647356367406,2.597957883659304e-38,992.0,-42.0,78.0,-42.1875,16.75,-9.0625,-61.9375,-0.4375,-3.5625,237.375,87.25,1.125,0.59991455078125,-0.34417724609375,0.63348388671875,0.34686279296875,13.0,-23.0,36.0,979.0,-19.0,42.0,2844,3750,843,
317,28.046000003814697,0.08300018310546875,12.048166191745565,11.302859586282644,2.597957883659304e-38,993.0,-18.0,53.0,-45.0625,17.5625,-7.6875,-62.0,0.375,-3.625,242.25,87.25,1.0625,0.585205078125,-0.36895751953125,0.61810302734375,0.37335205078125,14.0,0.0,11.0,979.0,-18.0,41.0,2838,3762,853,
318,28.133999824523926,0.08799982070922852,11.363659515900926,11.303049761264477,2.597957883659304e-38,990.0,-11.0,64.0,-45.0625,18.25,-3.75,-62.875,2.1875,-3.8125,247.75,87.375,1.0,0.56768798828125,-0.3961181640625,0.59906005859375,0.4024658203125,10.0,-251.0,-2.0,979.0,-17.0,40.0,2683,3803,952,
319,28.230000019073486,0.09600019454956055,10.416645556731089,11.300035415673714,2.597957883659304e-38,994.0,-35.0,53.0,-43.1875,21.0,2.375,-63.1875,1.6875,-3.5,253.25,87.375,0.9375,0.54803466796875,-0.42266845703125,0.5791015625,0.43084716796875,15.0,-18.0,11.0,979.0,-16.0,41.0,2650,3804,999,
320,28.325000047683716,0.09500002861022949,10.526312619366108,11.297440404635342,2.6000385316191333e-38,988.0,3.0,32.0,-41.0,18.875,7.375,-63.3125,1.3125,-3.25,259.4375,87.4375,0.875,0.52508544921875,-0.4512939453125,0.5548095703125,0.4613037109375,8.0,19.0,-7.0,979.0,-15.0,40.0,2668,3762,1004,
321,28.41700005531311,0.09200000762939453,10.869564315997886,11.296055156250837,2.6000385316191333e-38,984.0,-21.0,60.0,-37.25,18.375,10.875,-63.3125,1.75,-3.375,265.0625,87.4375,0.875,0.502685546875,-0.47589111328125,0.53173828125,0.4879150390625,5.0,-6.0,19.0,979.0,-15.0,40.0,2765,3732,999,
322,28.509000062942505,0.09200000762939453,10.869564315997886,11.29467884840172,2.6000385316191333e-38,994.0,-13.0,52.0,-34.25,17.0,12.5,-64.1875,1.3125,-3.6875,270.6875,87.5,0.8125,0.4793701171875,-0.499755859375,0.5069580078125,0.51324462890625,14.0,0.0,12.0,979.0,-14.0,40.0,2890,3709,871,
323,28.6010000705719,0.09200000762939453,10.869564315997886,11.293311394811704,2.6000385316191333e-38,1003.0,-14.0,71.0,-30.1875,17.1875,14.375,-64.25,-0.625,-3.75,276.9375,87.4375,0.75,0.4515380859375,-0.522216796875,0.481201171875,0.54046630859375,2.0,-8.0,17.0,979.0,-13.0,40.0,2927,3711,749,
324,28.692000150680542,0.09100008010864258,10.989001315231004,11.292346239316295,2.598316616066171e-38,982.0,-31.0,57.0,-28.6875,16.0625,14.75,-65.0625,1.5625,-3.6875,282.6875,87.5,0.6875,0.42547607421875,-0.54620361328125,0.45068359375,0.5634765625,3.0,-18.0,16.0,979.0,-12.0,40.0,3006,3690,518,
325,28.781999826431274,0.08999967575073242,11.111151142029108,11.291779652557146,2.598316616066171e-38,993.0,-34.0,64.0,-25.0,13.875,15.5625,-65.1875,-1.9375,-3.5625,288.375,87.5,0.6875,0.39813232421875,-0.5665283203125,0.42193603515625,0.585205078125,14.0,-22.0,23.0,979.0,-11.0,40.0,3082,3525,433,
326,28.869999885559082,0.08800005912780762,11.363628728335758,11.291998659240273,2.598316616066171e-38,985.0,-41.0,102.0,-21.375,13.5,15.1875,-66.5,1.9375,-3.5,294.125,87.5625,0.625,0.37286376953125,-0.58349609375,0.3953857421875,0.60345458984375,12.0,-19.0,38.0,979.0,-11.0,40.0,3085,3507,52,
327,28.960999965667725,0.09100008010864258,10.989001315231004,11.29104659326844,2.598316616066171e-38,1024.0,-17.0,61.0,-20.6875,10.0625,14.75,-65.8125,-0.25,-3.4375,299.9375,87.5625,0.5625,0.34002685546875,-0.60321044921875,0.3609619140625,0.62469482421875,44.0,-7.0,21.0,979.0,-10.0,40.0,3177,3478,-76,
328,29.05899977684021,0.09799981117248535,10.204101294031496,11.287380932547217,2.5962359681063415e-38,992.0,-44.0,65.0,-19.1875,8.0625,13.875,-66.0625,0.8125,-3.875,305.75,87.5625,0.5,0.30963134765625,-0.61920166015625,0.3287353515625,0.64239501953125,13.0,-35.0,24.0,979.0,-9.0,40.0,3208,3549,-27,
329,29.15499997138977,0.09600019454956055,10.416645556731089,11.284513816595869,2.5962359681063415e-38,1000.0,-19.0,55.0,-20.0,8.375,15.1875,-66.3125,0.1875,-3.9375,312.25,87.5,0.4375,0.274658203125,-0.63525390625,0.2918701171875,0.66015625,20.0,-11.0,14.0,979.0,-7.0,41.0,3221,3467,-17,
