Index,Time,Difference,Hz,AveHz,0x6103 Pressure,0x6103 Acceleration-X,0x6103 Acceleration-Y,0x6103 Acceleration-Z,0x6103 Magnetic-X,0x6103 Magnetic-Y,0x6103 Magnetic-Z,0x6103 Angular-Vel-X,0x6103 Angular-Vel-Y,0x6103 Angular-Vel-Z,0x6103 Heading,0x6103 Roll,0x6103 Pitch,0x6103 Quaternion-X,0x6103 Quaternion-Y,0x6103 Quaternion-Z,0x6103 Quaternion-W,0x6103 Linear-Acceleration-X,0x6103 Linear-Acceleration-Y,0x6103 Linear-Acceleration-Z,0x6103 Gravity-X,0x6103 Gravity-Y,0x6103 Gravity-Z,0x6103 Range,0x6103 Smoothed Range,0x6103 Velocity,
0,0.0010001659393310547,0.0010001659393310547,999.8340882002384,0.0,102093.25,876.0,-521.0,-119.0,-29.0625,36.5,7.375,6.875,-10.5625,-5.875,332.4375,56.5,104.0625,-0.2442626953125,-0.71246337890625,0.1563720703125,0.63897705078125,58.0,3.0,12.0,817.0,-524.0,-131.0,2317,2325.0,-399.93363528009536,
1,0.0460047721862793,0.04500460624694824,22.219947765187033,21.736875382207526,102093.25,901.0,-529.0,-105.0,-29.0625,36.5,7.375,10.875,-7.1875,-3.875,332.0625,56.5625,104.25,-0.240478515625,-0.714111328125,0.158447265625,0.63800048828125,92.0,-1.0,33.0,818.0,-522.0,-132.0,2369,2333.8,-280.8398001573463,
2,0.0940096378326416,0.048004865646362305,20.83122172170432,21.274414476103523,102093.25,874.0,-520.0,-126.0,-26.875,37.25,8.1875,6.8125,-3.0,-3.9375,331.75,56.75,104.1875,-0.23663330078125,-0.7149658203125,0.16033935546875,0.6380615234375,63.0,0.0,7.0,820.0,-520.0,-131.0,2331,2333.2400000000002,-227.0049369587077,
3,0.1420142650604248,0.0480046272277832,20.831325181528314,21.124638420820247,102093.25,824.0,-462.0,-155.0,-29.5,37.25,7.0,1.625,1.1875,2.875,331.625,56.8125,104.0,-0.2352294921875,-0.71490478515625,0.16131591796875,0.638427734375,3.0,58.0,-24.0,820.0,-520.0,-130.0,2327,2331.992,-186.80344833227585,
4,0.1900191307067871,0.048004865646362305,20.83122172170432,21.05051204645432,102093.25,885.0,-505.0,-138.0,-30.1875,35.75,6.5625,-0.125,-3.75,-3.6875,331.625,56.8125,104.375,-0.23468017578125,-0.71624755859375,0.16094970703125,0.63714599609375,43.0,15.0,2.0,821.0,-519.0,-133.0,2284,2322.3936000000003,-189.43203838054143,
5,0.23502373695373535,0.04500460624694824,22.219947765187033,21.27444684867833,102097.25,897.0,-525.0,-139.0,-27.6875,36.5,7.25,5.875,-2.6875,-2.125,331.625,57.0,104.625,-0.2322998046875,-0.71759033203125,0.16064453125,0.6365966796875,79.0,-3.0,21.0,822.0,-516.0,-135.0,2388,2335.51488,-93.23479946195516,
6,0.28302860260009766,0.048004865646362305,20.83122172170432,21.19927083298234,102097.25,885.0,-520.0,-118.0,-27.25,36.875,6.5625,2.5,-5.5625,1.3125,331.1875,56.875,104.5625,-0.23114013671875,-0.71795654296875,0.16302490234375,0.63604736328125,59.0,-9.0,1.0,821.0,-517.0,-135.0,2575,2383.4119040000005,124.9628657811959,
7,0.33303356170654297,0.05000495910644531,19.998016554144257,21.018902611887942,102097.25,893.0,-530.0,-105.0,-25.375,36.5,6.875,7.6875,-4.375,-2.6875,330.9375,57.0,104.5,-0.22808837890625,-0.71856689453125,0.16455078125,0.635986328125,73.0,-6.0,31.0,822.0,-516.0,-134.0,2252,2357.1295232000007,-5.148804639187219,
8,0.3800382614135742,0.04700469970703125,21.274468430449602,21.05051204645432,102097.25,903.0,-529.0,-131.0,-24.6875,34.6875,6.875,4.0625,-7.3125,-4.0,330.9375,57.25,104.75,-0.22491455078125,-0.719970703125,0.16473388671875,0.63555908203125,74.0,-6.0,5.0,824.0,-512.0,-135.0,2209,2327.5036185600006,-130.17411830878802,
9,0.4280431270599365,0.048004865646362305,20.83122172170432,21.0259187241658,102097.25,864.0,-506.0,-132.0,-25.75,35.375,6.1875,8.875,-4.5,-6.0625,330.6875,57.4375,104.75,-0.2205810546875,-0.72113037109375,0.166015625,0.6353759765625,40.0,3.0,13.0,826.0,-509.0,-134.0,2191,2300.2028948480006,-217.8807804085631,
10,0.4770479202270508,0.04900479316711426,20.406167139402843,20.962254683429926,102097.25,884.0,-490.0,-123.0,-27.25,36.1875,6.875,7.5625,-5.8125,-8.125,330.625,57.875,104.875,-0.21484375,-0.72259521484375,0.1663818359375,0.6356201171875,45.0,19.0,7.0,830.0,-503.0,-133.0,2134,2266.9623158784007,-309.9671863796856,
11,0.524052619934082,0.04700469970703125,21.274468430449602,20.990258576292653,102097.25,869.0,-489.0,-106.0,-26.875,36.875,6.5625,10.3125,-4.1875,-8.8125,330.5625,58.25,104.875,-0.20916748046875,-0.72369384765625,0.16705322265625,0.6361083984375,45.0,15.0,26.0,834.0,-498.0,-132.0,2092,2231.969852702721,-396.86295973068275,
12,0.5750577449798584,0.05100512504577637,19.60587292164296,20.867469579807683,102098.25,888.0,-492.0,-106.0,-26.875,37.25,6.875,10.3125,-4.625,-6.3125,330.4375,58.6875,104.6875,-0.20330810546875,-0.7242431640625,0.16796875,0.6370849609375,53.0,6.0,9.0,838.0,-492.0,-129.0,2181,2221.7758821621765,-357.4627059815231,
13,0.6250627040863037,0.05000495910644531,19.998016554144257,20.797913417347427,102098.25,865.0,-477.0,-126.0,-26.875,36.875,6.25,12.8125,-4.8125,-4.1875,330.0,58.9375,104.5,-0.1976318359375,-0.7249755859375,0.17047119140625,0.63739013671875,32.0,26.0,10.0,840.0,-489.0,-126.0,2341,2245.6207057297415,-190.60032949825535,
14,0.675067663192749,0.05000495910644531,19.998016554144257,20.73866186062988,102098.25,887.0,-482.0,-123.0,-27.6875,36.5,5.5,12.875,-9.6875,-1.875,329.375,59.0,104.5,-0.19232177734375,-0.726318359375,0.174072265625,0.63653564453125,49.0,-2.0,6.0,841.0,-488.0,-126.0,2434,2283.2965645837935,-1.791773787617558,
15,0.7260725498199463,0.051004886627197266,19.605964567849295,20.659092543465174,102098.25,888.0,-456.0,-137.0,-28.375,37.6875,5.875,18.4375,-6.375,-4.1875,328.625,59.1875,104.25,-0.185791015625,-0.7271728515625,0.1787109375,0.63623046875,59.0,44.0,-36.0,842.0,-486.0,-124.0,2453,2317.237251667035,131.6545626424038,
16,0.7750775814056396,0.04900503158569336,20.4060678596102,20.64309481250025,102098.25,874.0,-485.0,-118.0,-28.375,36.5,5.5,10.0,12.5625,0.125,328.4375,59.25,103.0,-0.18426513671875,-0.72357177734375,0.18072509765625,0.64019775390625,71.0,20.0,-2.0,843.0,-487.0,-112.0,2430,2339.789801333628,197.3654218946692,
17,0.8250827789306641,0.050005197525024414,19.9979212060819,20.603993240572287,102098.25,917.0,-462.0,-164.0,-28.0,35.75,4.6875,4.6875,2.8125,-3.6875,328.3125,59.375,102.6875,-0.18255615234375,-0.7227783203125,0.181640625,0.64129638671875,65.0,28.0,-44.0,844.0,-487.0,-109.0,2411,2354.0318410669024,214.8545751957172,
18,0.8730876445770264,0.048004865646362305,20.83122172170432,20.616486914919328,102098.25,917.0,-499.0,-108.0,-29.5,35.75,5.0625,-8.6875,1.6875,4.0625,328.625,59.25,102.6875,-0.18621826171875,-0.722412109375,0.1795654296875,0.6412353515625,63.0,-37.0,-3.0,843.0,-488.0,-110.0,2448,2372.825472853522,250.18252229720278,
19,0.9220924377441406,0.04900479316711426,20.406167139402843,20.605309426984004,102098.25,902.0,-508.0,-127.0,-28.0,36.5,5.5,1.3125,0.375,-4.625,329.0,59.3125,102.75,-0.18719482421875,-0.7220458984375,0.1778564453125,0.641845703125,58.0,-20.0,-16.0,843.0,-487.0,-110.0,2439,2386.060378282818,254.1607562906425,
20,0.9690968990325928,0.04700446128845215,21.27457633996277,20.637771124812318,102095.25,894.0,-480.0,-125.0,-27.6875,36.5,5.0625,3.375,4.4375,-7.9375,329.375,59.75,102.5625,-0.184326171875,-0.7218017578125,0.176025390625,0.6434326171875,47.0,1.0,-17.0,847.0,-481.0,-107.0,1877,2284.2483026262544,-229.87315014461143,
21,1.0211021900177002,0.05200529098510742,19.22881270458359,20.56601210466112,102095.25,901.0,-490.0,-115.0,-28.375,36.5,4.6875,0.875,1.0,-7.125,329.6875,60.0625,102.4375,-0.18182373046875,-0.72161865234375,0.174560546875,0.64471435546875,51.0,-13.0,-10.0,850.0,-477.0,-105.0,2153,2257.9986421010035,-284.84848127547923,
22,1.0711073875427246,0.050005197525024414,19.9979212060819,20.53949048981091,102095.25,882.0,-462.0,-125.0,-28.6875,36.1875,5.0625,-0.75,-0.3125,-7.0,330.125,60.5,102.625,-0.17938232421875,-0.72222900390625,0.17193603515625,0.64544677734375,28.0,7.0,-19.0,853.0,-470.0,-105.0,2322,2270.798913680803,-176.6830205265282,
23,1.125112533569336,0.05400514602661133,18.516753931324335,20.442399594495857,102095.25,879.0,-447.0,-101.0,-28.6875,35.75,5.5,-0.5,-0.0625,-4.4375,330.6875,60.875,102.6875,-0.178466796875,-0.72222900390625,0.16888427734375,0.64654541015625,23.0,18.0,3.0,856.0,-465.0,-104.0,1882,2193.0391309446422,-429.318168956968,
24,1.1771178245544434,0.05200529098510742,19.22881270458359,20.388783093216993,102095.25,901.0,-457.0,-90.0,-29.5,35.5,5.0,-1.6875,0.125,-0.0625,330.9375,61.0,102.6875,-0.17779541015625,-0.72235107421875,0.16748046875,0.64697265625,43.0,5.0,14.0,858.0,-462.0,-104.0,1919,2138.231304755714,-554.2324200720287,
25,1.2301230430603027,0.053005218505859375,18.86606693055056,20.32317022352898,102095.25,923.0,-484.0,-93.0,-29.0625,35.0625,3.5,-0.125,-2.75,-1.25,330.9375,61.0625,102.75,-0.177001953125,-0.72259521484375,0.16741943359375,0.6468505859375,64.0,-23.0,11.0,858.0,-461.0,-104.0,1980,2106.5850438045713,-562.7940314988084,
26,1.278127908706665,0.048004865646362305,20.83122172170432,20.342251994410596,102095.25,905.0,-474.0,-84.0,-28.375,36.1875,4.375,-0.0625,-2.1875,-5.3125,331.125,61.3125,102.8125,-0.17529296875,-0.72296142578125,0.1666259765625,0.647216796875,44.0,-16.0,19.0,860.0,-458.0,-104.0,2167,2118.6680350436573,-399.89453128648483,
27,1.3231325149536133,0.04500460624694824,22.219947765187033,20.406119337900613,102095.25,896.0,-447.0,-103.0,-30.1875,35.75,3.1875,0.3125,-3.375,-2.75,331.0625,61.5,103.0625,-0.17254638671875,-0.7239990234375,0.16680908203125,0.64666748046875,34.0,8.0,2.0,861.0,-455.0,-105.0,1919,2078.734428034926,-497.3801573910902,
28,1.3711373805999756,0.048004865646362305,20.83122172170432,20.421002589651444,102098.5,913.0,-477.0,-96.0,-28.375,34.6875,4.0,-1.0625,-1.6875,-0.875,331.0625,61.5,103.25,-0.17236328125,-0.72467041015625,0.1663818359375,0.6461181640625,51.0,-22.0,11.0,862.0,-454.0,-107.0,2388,2140.587542427941,-140.20893789310514,
29,1.4181420803070068,0.04700469970703125,21.274468430449602,20.449290943910167,102098.5,914.0,-473.0,-100.0,-28.6875,35.0625,5.0625,2.25,-2.25,-4.0625,331.1875,61.625,103.375,-0.17144775390625,-0.72509765625,0.1656494140625,0.6461181640625,51.0,-20.0,8.0,863.0,-452.0,-108.0,2134,2139.270033942353,-117.77300885118218,
30,1.463146448135376,0.04500436782836914,22.220065479280787,20.503757527643113,102098.5,894.0,-459.0,-97.0,-29.875,35.5,4.375,-0.25,-2.375,-6.4375,331.3125,61.8125,103.625,-0.169677734375,-0.725830078125,0.1649169921875,0.64593505859375,29.0,-9.0,11.0,864.0,-449.0,-109.0,1994,2110.216027153883,-223.33479373600173,
31,1.5091509819030762,0.046004533767700195,21.736988033603343,20.541350979282566,102098.5,883.0,-467.0,-118.0,-29.875,34.6875,4.0,-2.375,-4.3125,-1.75,331.4375,61.9375,104.1875,-0.16845703125,-0.72747802734375,0.16375732421875,0.6446533203125,18.0,-20.0,-5.0,865.0,-446.0,-112.0,2055,2099.1728217231066,-226.67703984908252,
32,1.5561556816101074,0.04700469970703125,21.274468430449602,20.563495271174002,102098.5,876.0,-462.0,-94.0,-31.6875,33.5625,5.875,-1.375,-2.0625,-0.125,331.6875,62.0,104.375,-0.16925048828125,-0.727783203125,0.1622314453125,0.64447021484375,10.0,-16.0,19.0,866.0,-445.0,-114.0,1919,2063.1382573784854,-334.66487219019587,
33,1.6041605472564697,0.048004865646362305,20.83122172170432,20.571507045500248,102098.5,885.0,-463.0,-108.0,-29.5,35.0625,4.375,-0.1875,-1.5625,-0.8125,331.6875,61.9375,104.5625,-0.169189453125,-0.72833251953125,0.162353515625,0.64385986328125,19.0,-18.0,7.0,865.0,-445.0,-115.0,2125,2075.5106059027885,-216.18567068656486,
34,1.651165246963501,0.04700469970703125,21.274468430449602,20.59151866388063,102098.5,895.0,-454.0,-126.0,-29.875,35.5,6.25,-0.625,-1.0625,0.875,331.875,61.9375,104.625,-0.17071533203125,-0.728271484375,0.16107177734375,0.64385986328125,29.0,-9.0,-9.0,865.0,-445.0,-116.0,2083,2077.008484722231,-166.57522141787788,
35,1.6971700191497803,0.0460047721862793,21.736875382207526,20.622565568023475,102098.5,896.0,-451.0,-126.0,-30.1875,35.0625,5.0625,-1.1875,1.0625,0.625,331.875,61.875,104.6875,-0.17132568359375,-0.728271484375,0.1610107421875,0.6436767578125,31.0,-5.0,-9.0,865.0,-446.0,-117.0,2176,2096.806787777785,-47.18952787475209,
36,1.7471749782562256,0.05000495910644531,19.998016554144257,20.604690685262636,102097.25,899.0,-448.0,-139.0,-30.1875,35.0625,5.0625,-2.875,1.125,2.375,331.9375,61.875,104.75,-0.17242431640625,-0.728271484375,0.16033935546875,0.6435546875,38.0,-8.0,-19.0,865.0,-446.0,-117.0,1980,2073.445430222228,-131.18778532446356,
37,1.7961797714233398,0.04900479316711426,20.406167139402843,20.599274409309395,102097.25,904.0,-460.0,-119.0,-29.875,35.375,5.0625,-5.1875,2.6875,3.6875,332.125,61.75,104.6875,-0.1749267578125,-0.72760009765625,0.15966796875,0.643798828125,47.0,-13.0,8.0,864.0,-448.0,-117.0,1985,2055.7563441777825,-177.1435175328175,
38,1.8441846370697021,0.048004865646362305,20.83122172170432,20.6053120908651,102097.25,912.0,-467.0,-107.0,-29.0625,34.6875,4.6875,-3.625,-0.6875,-0.5625,332.25,61.6875,104.8125,-0.17626953125,-0.72772216796875,0.15875244140625,0.6435546875,49.0,-18.0,11.0,863.0,-449.0,-118.0,2013,2047.2050753422259,-177.3414894493299,
39,1.8901891708374023,0.046004533767700195,21.736988033603343,20.63285548436509,102097.25,899.0,-447.0,-113.0,-28.0,33.5625,5.0625,-4.25,-3.6875,0.0625,332.4375,61.75,105.125,-0.17657470703125,-0.72845458984375,0.15753173828125,0.64288330078125,39.0,-1.0,7.0,864.0,-447.0,-121.0,2369,2111.564060273781,137.92090550294947,
40,1.9371938705444336,0.04700469970703125,21.274468430449602,20.648423788765296,102097.25,907.0,-462.0,-104.0,-31.6875,35.0625,5.875,-1.125,-0.5625,-0.3125,332.625,61.75,105.375,-0.177490234375,-0.72894287109375,0.15631103515625,0.64239501953125,45.0,-11.0,24.0,864.0,-447.0,-123.0,2008,2090.851248219025,22.205911169411564,
41,1.9811980724334717,0.044004201889038086,22.72510253728998,20.694548702866644,102097.25,912.0,-464.0,-128.0,-29.5,34.6875,5.875,-1.25,-0.125,-0.375,332.6875,61.75,105.4375,-0.17779541015625,-0.72900390625,0.156005859375,0.642333984375,54.0,-30.0,3.0,864.0,-447.0,-123.0,1985,2069.6809985752197,-78.45448984357057,
42,2.032203197479248,0.05100512504577637,19.60587292164296,20.667224641756764,102097.25,901.0,-459.0,-121.0,-29.5,32.5,5.5,0.3125,0.625,-2.75,332.8125,61.875,105.4375,-0.17724609375,-0.72906494140625,0.15509033203125,0.6427001953125,31.0,-13.0,-2.0,865.0,-445.0,-123.0,2032,2062.144798860176,-92.31434665991117,
43,2.0862088203430176,0.05400562286376953,18.51659043952745,20.611551241035343,102098.25,885.0,-450.0,-139.0,-33.1875,34.25,5.5,-2.25,0.5625,0.125,333.0,61.9375,105.5625,-0.17724609375,-0.72930908203125,0.15411376953125,0.64263916015625,18.0,-10.0,-17.0,865.0,-443.0,-124.0,1999,2049.5158390881406,-120.62053248313754,
44,2.134213447570801,0.0480046272277832,20.831325181528314,20.61649459199199,102098.25,891.0,-480.0,-132.0,-29.5,33.5625,5.875,-3.5625,3.3125,1.3125,333.125,61.875,105.5625,-0.17877197265625,-0.72894287109375,0.15325927734375,0.642822265625,26.0,-35.0,-8.0,865.0,-444.0,-124.0,2046,2048.8126712705125,-99.42600947974945,
45,2.181218385696411,0.04700493812561035,21.274360522031113,20.630671506848028,102098.25,877.0,-458.0,-144.0,-29.0625,32.0625,5.875,-2.0625,-2.875,-2.5625,333.3125,61.9375,105.75,-0.17913818359375,-0.729248046875,0.152099609375,0.64263916015625,9.0,-10.0,-24.0,865.0,-443.0,-125.0,2097,2058.4501370164103,-38.53462342440863,
46,2.2292230129241943,0.0480046272277832,20.831325181528314,20.634992431582372,102098.25,890.0,-462.0,-143.0,-33.1875,31.0,4.375,-3.25,2.6875,1.625,333.5,61.9375,105.875,-0.18017578125,-0.72930908203125,0.15106201171875,0.64251708984375,28.0,-23.0,-14.0,865.0,-443.0,-126.0,2214,2089.5601096131286,98.78469237060787,
47,2.2802281379699707,0.05100512504577637,19.60587292164296,20.611972643159692,102098.25,900.0,-469.0,-150.0,-29.0625,33.5625,5.875,-3.75,-2.0,0.1875,333.5625,61.875,106.0,-0.181396484375,-0.7293701171875,0.1505126953125,0.6422119140625,32.0,-23.0,-22.0,865.0,-443.0,-127.0,2298,2131.248087690503,242.49359400553388,
48,2.329232931137085,0.04900479316711426,20.406167139402843,20.607642695729602,102098.25,905.0,-449.0,-151.0,-29.875,33.5625,6.25,-2.75,1.0625,0.1875,333.75,61.875,106.25,-0.182373046875,-0.72979736328125,0.14935302734375,0.6417236328125,40.0,-5.0,-22.0,865.0,-443.0,-129.0,2191,2143.1984701524025,242.76717558388947,
49,2.3822381496429443,0.053005218505859375,18.86606693055056,20.56889232814286,102098.25,898.0,-445.0,-148.0,-29.5,33.1875,6.6875,-4.25,2.3125,-0.6875,334.125,61.9375,106.4375,-0.18365478515625,-0.7301025390625,0.14764404296875,0.6416015625,33.0,-2.0,-17.0,865.0,-442.0,-131.0,2083,2131.158776121922,148.7854057866329,
50,2.4302430152893066,0.048004865646362305,20.83122172170432,20.574074150377832,102098.25,904.0,-451.0,-145.0,-31.6875,32.75,6.6875,-5.6875,2.4375,0.875,334.375,61.9375,106.375,-0.18536376953125,-0.7294921875,0.14593505859375,0.64202880859375,39.0,-5.0,-12.0,865.0,-442.0,-130.0,1975,2099.9270208975377,-11.09079893812347,
51,2.480248212814331,0.050005197525024414,19.9979212060819,20.562458118709998,102094.5,908.0,-447.0,-128.0,-32.0625,32.0625,6.25,-4.5625,2.75,1.0625,334.625,61.9375,106.375,-0.18682861328125,-0.72894287109375,0.14434814453125,0.64263916015625,42.0,-9.0,0.0,865.0,-441.0,-129.0,2209,2121.7416167180304,78.37667452164871,
52,2.5302531719207764,0.05000495910644531,19.998016554144257,20.551303156958614,102094.5,903.0,-440.0,-121.0,-29.0625,33.5625,7.375,-2.875,2.4375,-1.125,334.875,62.0,106.3125,-0.187744140625,-0.72845458984375,0.14288330078125,0.6431884765625,37.0,0.0,7.0,866.0,-440.0,-129.0,2111,2119.5932933744243,54.108898459501184,
53,2.5792582035064697,0.04900503158569336,20.4060678596102,20.54854373553883,102094.5,915.0,-445.0,-134.0,-29.5,33.1875,5.875,-2.3125,1.375,0.125,335.125,62.0625,106.375,-0.18829345703125,-0.7283935546875,0.14166259765625,0.64337158203125,44.0,-8.0,4.0,866.0,-439.0,-129.0,2425,2180.6746346995396,292.57311797486415,
54,2.627262830734253,0.0480046272277832,20.831325181528314,20.553710640708292,102094.5,909.0,-447.0,-128.0,-30.1875,33.5625,6.6875,-3.25,1.25,0.125,335.25,62.125,106.3125,-0.188720703125,-0.72808837890625,0.14093017578125,0.643798828125,46.0,-9.0,10.0,867.0,-439.0,-128.0,2074,2159.339707759632,145.1715342180179,
55,2.674267530441284,0.04700469970703125,21.274468430449602,20.566379157632138,102094.5,906.0,-438.0,-116.0,-29.875,32.75,6.25,-0.0625,1.4375,-2.25,335.4375,62.1875,106.25,-0.18896484375,-0.72772216796875,0.139892578125,0.644287109375,38.0,0.0,11.0,867.0,-438.0,-128.0,2575,2242.4717662077055,469.85529797678106,
56,2.7242724895477295,0.05000495910644531,19.998016554144257,20.555946666442626,102094.5,907.0,-448.0,-137.0,-29.0625,34.0,5.875,-0.75,1.125,0.25,335.5625,62.25,106.25,-0.1888427734375,-0.72772216796875,0.1392822265625,0.64447021484375,39.0,-11.0,-9.0,868.0,-437.0,-127.0,2341,2262.1774129661644,454.69900839858093,
57,2.77127742767334,0.04700493812561035,21.274360522031113,20.568132021287763,102094.5,909.0,-442.0,-124.0,-29.875,32.75,6.25,0.875,0.625,-0.4375,335.625,62.3125,106.125,-0.188720703125,-0.72723388671875,0.13909912109375,0.6451416015625,40.0,-5.0,2.0,868.0,-437.0,-126.0,1943,2198.3419303729315,92.1473925616092,
58,2.819282054901123,0.0480046272277832,20.831325181528314,20.572613477665737,102094.5,916.0,-458.0,-120.0,-30.1875,33.1875,6.6875,0.5625,-0.125,0.4375,335.625,62.3125,106.0,-0.18865966796875,-0.7269287109375,0.13916015625,0.64544677734375,47.0,-21.0,4.0,868.0,-437.0,-125.0,1952,2149.0735442983455,-131.54724024846922,
59,2.8672869205474854,0.048004865646362305,20.83122172170432,20.57694316435358,102099.0,900.0,-441.0,-121.0,-29.0625,34.0,6.6875,2.5625,0.1875,-2.0625,335.625,62.375,105.9375,-0.1883544921875,-0.72674560546875,0.13909912109375,0.645751953125,35.0,-8.0,7.0,869.0,-436.0,-124.0,2036,2126.4588354386765,-199.4561950842866,
60,2.9132914543151855,0.046004533767700195,21.736988033603343,20.595261730894663,102099.0,901.0,-436.0,-122.0,-29.875,33.5625,6.25,2.1875,-1.5625,-0.1875,335.625,62.4375,105.9375,-0.187255859375,-0.72711181640625,0.139404296875,0.6456298828125,31.0,0.0,2.0,869.0,-435.0,-124.0,2280,2157.167068350941,-26.064057798029665,
61,2.9612960815429688,0.0480046272277832,20.831325181528314,20.5990884802766,102099.0,927.0,-469.0,-132.0,-30.1875,32.5,6.25,1.9375,-1.375,1.125,335.4375,62.375,105.9375,-0.18695068359375,-0.72723388671875,0.140380859375,0.64532470703125,58.0,-32.0,-6.0,869.0,-436.0,-125.0,2256,2176.9336546807526,61.50159127458789,
62,3.00830078125,0.04700469970703125,21.274468430449602,20.609641291998052,102099.0,898.0,-441.0,-142.0,-30.1875,32.75,7.0,1.625,-2.5625,-2.625,335.5,62.4375,106.0625,-0.186767578125,-0.7275390625,0.1397705078125,0.6451416015625,28.0,-6.0,-16.0,869.0,-435.0,-125.0,2087,2158.9469237446024,-27.330354873953652,
63,3.0523054599761963,0.04400467872619629,22.724856286808727,20.640136063083055,102099.0,902.0,-458.0,-128.0,-31.6875,32.0625,5.0625,0.4375,-1.3125,0.625,335.3125,62.375,106.1875,-0.1854248046875,-0.72808837890625,0.1409912109375,0.6446533203125,33.0,-22.0,-1.0,869.0,-435.0,-126.0,1980,2123.157538995682,-184.5260089016669,
64,3.0953097343444824,0.04300427436828613,23.25350246433779,20.676444521812538,102099.0,899.0,-452.0,-147.0,-29.875,33.5625,5.875,1.8125,-1.5,-1.1875,335.25,62.4375,106.3125,-0.18487548828125,-0.72857666015625,0.1412353515625,0.64422607421875,30.0,-19.0,-16.0,869.0,-435.0,-127.0,1966,2091.7260311965456,-293.79933593434765,
65,3.1423141956329346,0.04700446128845215,21.27457633996277,20.685391706002683,102099.0,896.0,-460.0,-122.0,-29.875,33.5625,5.875,-0.6875,0.125,0.0,335.25,62.4375,106.3125,-0.184814453125,-0.72857666015625,0.14117431640625,0.644287109375,26.0,-24.0,5.0,869.0,-435.0,-127.0,1985,2070.3808249572367,-325.86151267356365,
66,3.192319393157959,0.050005197525024414,19.9979212060819,20.674623015935254,102099.0,899.0,-454.0,-116.0,-32.375,33.5625,5.5,-0.125,0.4375,0.375,335.1875,62.4375,106.25,-0.184326171875,-0.72869873046875,0.1416015625,0.64422607421875,30.0,-19.0,10.0,869.0,-435.0,-127.0,,2070.3808249572367,-325.86151267356365,
67,3.235323667526245,0.04300427436828613,23.25350246433779,20.708901762286043,102100.75,893.0,-440.0,-131.0,-29.0625,33.5625,5.5,0.1875,-0.25,-0.625,335.1875,62.4375,106.3125,-0.1844482421875,-0.728759765625,0.141357421875,0.64410400390625,23.0,-5.0,-3.0,869.0,-435.0,-127.0,1952,2046.7046599657895,-370.799962333788,
68,3.2833285331726074,0.048004865646362305,20.83122172170432,20.7106901770482,102100.75,910.0,-457.0,-133.0,-29.5,32.75,5.5,-0.5625,0.9375,2.1875,335.1875,62.375,106.25,-0.1849365234375,-0.728515625,0.14166259765625,0.64422607421875,41.0,-21.0,-5.0,869.0,-436.0,-127.0,1924,2022.1637279726317,-398.8834889883777,
69,3.3333334922790527,0.05000495910644531,19.998016554144257,20.699999012947128,102100.75,912.0,-458.0,-140.0,-32.0625,31.6875,5.875,-1.6875,0.8125,1.125,335.1875,62.3125,106.3125,-0.18560791015625,-0.728515625,0.14141845703125,0.64410400390625,43.0,-21.0,-12.0,868.0,-436.0,-127.0,1910,1999.7309823781054,-408.82887474155086,
70,3.38433837890625,0.051004886627197266,19.605964567849295,20.683510974048225,102100.75,899.0,-448.0,-119.0,-32.75,33.1875,5.5,-1.3125,2.1875,-0.375,335.3125,62.3125,106.0625,-0.1865234375,-0.72772216796875,0.1409912109375,0.644775390625,30.0,-11.0,7.0,868.0,-437.0,-126.0,1905,1980.7847859024844,-401.35479115254816,
71,3.4323432445526123,0.048004865646362305,20.83122172170432,20.6855768614291,102100.75,910.0,-456.0,-127.0,-32.75,32.0625,6.25,-2.1875,1.1875,1.3125,335.375,62.3125,106.0625,-0.1871337890625,-0.7275390625,0.1405029296875,0.6448974609375,41.0,-19.0,-1.0,868.0,-437.0,-126.0,1957,1976.0278287219876,-340.90247887155493,
72,3.4813480377197266,0.04900479316711426,20.406167139402843,20.68164378278013,102100.75,898.0,-439.0,-126.0,-28.375,32.5,6.25,-0.75,1.9375,-1.8125,335.5,62.3125,106.0625,-0.18768310546875,-0.72735595703125,0.13983154296875,0.6451416015625,29.0,-3.0,0.0,868.0,-436.0,-125.0,2022,1985.2222629775902,-235.1973506628285,
73,3.528352975845337,0.04700493812561035,21.274360522031113,20.68953999210081,102100.75,899.0,-450.0,-115.0,-28.375,34.6875,5.875,-2.1875,3.0,0.5625,335.6875,62.375,106.0,-0.18817138671875,-0.72698974609375,0.138916015625,0.64556884765625,30.0,-14.0,9.0,869.0,-436.0,-125.0,1966,1981.3778103820723,-204.5155346356438,
74,3.57635760307312,0.0480046272277832,20.831325181528314,20.691443142154665,102100.75,902.0,-459.0,-120.0,-29.875,33.5625,6.25,-2.1875,2.4375,0.0,335.8125,62.4375,105.8125,-0.18896484375,-0.726318359375,0.13824462890625,0.646240234375,33.0,-22.0,3.0,869.0,-436.0,-124.0,1980,1981.102248305658,-164.7604923528122,
75,3.6263625621795654,0.05000495910644531,19.998016554144257,20.681881282968707,102100.25,899.0,-448.0,-111.0,-29.0625,34.6875,6.6875,-1.3125,0.9375,1.1875,335.875,62.4375,105.5625,-0.1893310546875,-0.72552490234375,0.137939453125,0.6470947265625,36.0,-13.0,8.0,869.0,-436.0,-122.0,2434,2071.6817986445267,230.47387554647847,
76,3.6743674278259277,0.048004865646362305,20.83122172170432,20.68383238552932,102100.25,924.0,-470.0,-125.0,-28.6875,34.0,5.875,0.9375,1.5625,1.0625,335.875,62.375,105.4375,-0.19012451171875,-0.72503662109375,0.13824462890625,0.6473388671875,53.0,-25.0,-6.0,868.0,-438.0,-121.0,2284,2114.1454389156215,361.2930015567567,
77,3.723372459411621,0.04900503158569336,20.4060678596102,20.68017659779537,102100.25,909.0,-441.0,-138.0,-29.0625,35.0625,5.0625,0.8125,1.375,-1.375,335.9375,62.4375,105.4375,-0.189697265625,-0.72503662109375,0.13800048828125,0.64752197265625,40.0,-4.0,-17.0,869.0,-437.0,-120.0,2022,2095.7163511324975,213.8213580667769,
78,3.7743775844573975,0.05100512504577637,19.60587292164296,20.66565897413076,102100.25,910.0,-448.0,-132.0,-29.5,34.6875,5.875,-1.5625,0.125,0.25,336.0,62.4375,105.4375,-0.189697265625,-0.7249755859375,0.13763427734375,0.647705078125,40.0,-13.0,-20.0,869.0,-436.0,-120.0,,2095.7163511324975,213.8213580667769,
79,3.8183817863464355,0.044004201889038086,22.72510253728998,20.689392632890705,102100.25,907.0,-452.0,-136.0,-29.5,34.6875,5.875,-0.9375,0.8125,-0.1875,336.0625,62.4375,105.5,-0.190185546875,-0.72509765625,0.13702392578125,0.64752197265625,41.0,-16.0,-16.0,869.0,-436.0,-121.0,2139,2104.373080905998,210.40210080150354,
80,3.86838698387146,0.050005197525024414,19.9979212060819,20.680454239336843,102100.25,903.0,-448.0,-107.0,-29.5,35.0625,5.875,-2.5625,1.0625,-0.6875,336.1875,62.5,105.5,-0.19061279296875,-0.724853515625,0.13629150390625,0.6478271484375,36.0,-12.0,4.0,870.0,-435.0,-121.0,1975,2078.4984647247984,64.83397351535456,
81,3.9183919429779053,0.05000495910644531,19.998016554144257,20.671745241095383,102100.25,910.0,-454.0,-103.0,-29.0625,33.1875,6.6875,-0.6875,0.8125,-0.5,336.3125,62.5,105.5625,-0.191162109375,-0.72479248046875,0.13568115234375,0.6478271484375,32.0,-13.0,6.0,870.0,-435.0,-121.0,2430,2148.7987717798387,333.0405196619078,
82,3.9663968086242676,0.048004865646362305,20.83122172170432,20.67367536745307,102100.25,900.0,-446.0,-122.0,-30.1875,33.5625,6.6875,-0.125,0.1875,-1.0,336.375,62.5,105.5625,-0.191162109375,-0.724853515625,0.13543701171875,0.64788818359375,29.0,-5.0,-9.0,870.0,-435.0,-121.0,1957,2110.439017423871,106.6163060936712,
83,4.013401508331299,0.04700469970703125,21.274468430449602,20.680711817071582,102097.25,901.0,-441.0,-121.0,-29.0625,34.6875,5.875,-1.625,-0.6875,0.5,336.375,62.5,105.5625,-0.19122314453125,-0.72491455078125,0.13525390625,0.6478271484375,24.0,-3.0,-2.0,870.0,-435.0,-121.0,2444,2177.151213939097,369.146348612762,
84,4.061406373977661,0.048004865646362305,20.83122172170432,20.68249080865357,102097.25,917.0,-456.0,-115.0,-29.875,35.0625,6.25,-0.8125,0.9375,1.5,336.375,62.4375,105.5625,-0.19207763671875,-0.72467041015625,0.13525390625,0.64776611328125,47.0,-19.0,6.0,869.0,-436.0,-121.0,1994,2140.520971151278,142.70653704362576,
85,4.108410835266113,0.04700446128845215,21.27457633996277,20.689264878373418,102097.25,906.0,-449.0,-113.0,-28.375,34.25,5.5,0.25,0.125,0.25,336.375,62.4375,105.5,-0.19219970703125,-0.72454833984375,0.1351318359375,0.64788818359375,35.0,-11.0,4.0,869.0,-436.0,-121.0,1933,2099.0167769210225,-62.43160008114202,
86,4.156415700912476,0.048004865646362305,20.83122172170432,20.690904420633398,102097.25,909.0,-450.0,-117.0,-29.0625,34.6875,6.25,0.0625,0.625,0.125,336.4375,62.5,105.5,-0.1922607421875,-0.7244873046875,0.13507080078125,0.64801025390625,38.0,-12.0,7.0,869.0,-436.0,-121.0,2331,2145.413421536818,143.35447816203782,
87,4.201420307159424,0.04500460624694824,22.219947765187033,20.707283166063576,102097.25,909.0,-450.0,-123.0,-29.0625,34.6875,6.25,0.0,-0.3125,-0.3125,336.4375,62.5,105.5,-0.1922607421875,-0.72442626953125,0.135009765625,0.6480712890625,39.0,-14.0,-1.0,869.0,-436.0,-121.0,2125,2141.330737229455,96.54017611935821,
88,4.246424674987793,0.04500436782836914,22.220065479280787,20.72331590345541,102097.25,909.0,-450.0,-109.0,-29.5,35.0625,6.25,0.125,-0.4375,0.1875,336.4375,62.5,105.5,-0.19219970703125,-0.72442626953125,0.135009765625,0.64813232421875,39.0,-13.0,11.0,869.0,-436.0,-121.0,1900,2093.064589783564,-137.2632504405771,
89,4.291429281234741,0.04500460624694824,22.219947765187033,20.739011216885924,102097.25,901.0,-448.0,-121.0,-31.375,33.1875,5.875,1.5,1.8125,-1.1875,336.4375,62.5,105.4375,-0.1917724609375,-0.724365234375,0.13494873046875,0.6483154296875,31.0,-12.0,0.0,870.0,-435.0,-120.0,1966,2067.6516718268513,-222.74534226428915,
90,4.3394341468811035,0.048004865646362305,20.83122172170432,20.740031292947723,102097.25,903.0,-449.0,-115.0,-32.0625,33.5625,6.6875,0.0,-0.5,0.4375,336.4375,62.5625,105.375,-0.191650390625,-0.7242431640625,0.1348876953125,0.64849853515625,36.0,-14.0,5.0,870.0,-435.0,-120.0,1933,2040.7213374614812,-290.3946270523628,
91,4.388438940048218,0.04900479316711426,20.406167139402843,20.736303100755947,102096.5,912.0,-461.0,-125.0,-29.5,34.6875,6.6875,0.1875,-0.8125,0.4375,336.4375,62.5,105.375,-0.19171142578125,-0.7242431640625,0.135009765625,0.6484375,42.0,-25.0,-5.0,870.0,-435.0,-120.0,1961,2024.777069969185,-297.38797911451877,
92,4.435443878173828,0.04700493812561035,21.274360522031113,20.742005203293985,102096.5,904.0,-444.0,-131.0,-29.5,35.5,7.0,0.6875,-0.4375,-0.9375,336.4375,62.5625,105.4375,-0.19146728515625,-0.724365234375,0.135009765625,0.64837646484375,33.0,-9.0,-11.0,870.0,-435.0,-120.0,1919,2003.6216559753482,-327.9239641511566,
93,4.48244833946228,0.04700446128845215,21.27457633996277,20.74758992340253,102096.5,899.0,-446.0,-126.0,-29.0625,35.75,6.6875,-0.5625,0.125,-0.3125,336.4375,62.5625,105.4375,-0.19140625,-0.72442626953125,0.13494873046875,0.64837646484375,29.0,-11.0,-5.0,870.0,-435.0,-120.0,1928,1988.4973247802786,-326.69191904100273,
94,4.5294530391693115,0.04700469970703125,21.274468430449602,20.75305764009849,102096.5,903.0,-452.0,-129.0,-32.75,34.25,5.875,-0.875,0.5,0.375,336.5,62.5625,105.5,-0.191650390625,-0.7244873046875,0.13470458984375,0.64825439453125,32.0,-17.0,-8.0,870.0,-435.0,-120.0,1905,1971.797859824223,-332.4079832354032,
95,4.570457220077515,0.041004180908203125,24.387757000651224,20.785666603042575,102096.5,906.0,-454.0,-121.0,-29.5,35.0625,5.0625,-0.875,-0.3125,1.25,336.5,62.5625,105.4375,-0.19183349609375,-0.724365234375,0.13470458984375,0.64837646484375,34.0,-17.0,10.0,870.0,-435.0,-120.0,1957,1968.8382878593786,-280.3618509692355,
96,4.615461587905884,0.04500436782836914,22.220065479280787,20.79965311628926,102096.5,901.0,-451.0,-113.0,-31.0,34.6875,6.25,0.375,0.6875,-0.0625,336.5,62.5,105.4375,-0.19207763671875,-0.7242431640625,0.134765625,0.64837646484375,31.0,-15.0,7.0,870.0,-435.0,-120.0,1947,1964.4706302875031,-243.69940822301842,
97,4.664466381072998,0.04900479316711426,20.406167139402843,20.795519160261684,102096.5,908.0,-453.0,-123.0,-29.875,34.6875,4.375,0.375,0.375,0.125,336.5,62.5,105.4375,-0.19207763671875,-0.724365234375,0.134765625,0.64825439453125,38.0,-17.0,-2.0,870.0,-435.0,-120.0,1961,1963.7765042300027,-197.7924170474483,
98,4.710471153259277,0.0460047721862793,21.736875382207526,20.804712906943855,102096.5,901.0,-444.0,-130.0,-29.875,34.25,5.5,-0.0625,-0.6875,-0.125,336.5,62.5,105.5,-0.19207763671875,-0.7244873046875,0.13482666015625,0.64813232421875,31.0,-9.0,-9.0,870.0,-435.0,-121.0,1989,1968.8212033840023,-136.3027342677155,
99,4.760476112365723,0.05000495910644531,19.998016554144257,20.7962392128887,102098.5,910.0,-453.0,-124.0,-28.0,32.75,5.875,-0.3125,0.125,0.3125,336.4375,62.5,105.5,-0.19207763671875,-0.72442626953125,0.13482666015625,0.64813232421875,39.0,-17.0,-2.0,870.0,-435.0,-121.0,,1968.8212033840023,-136.3027342677155,
100,4.799480199813843,0.03900408744812012,25.638338580029952,20.835589654871104,102098.5,909.0,-456.0,-117.0,-29.875,35.0625,5.875,-0.4375,1.3125,0.25,336.5,62.5,105.5625,-0.19232177734375,-0.7244873046875,0.13458251953125,0.6480712890625,41.0,-20.0,-6.0,870.0,-435.0,-121.0,2022,1979.456962707202,-54.505547697391904,
101,4.843484401702881,0.044004201889038086,22.72510253728998,20.852756326517795,102098.5,908.0,-457.0,-115.0,-29.875,35.0625,5.875,-0.9375,0.3125,-0.3125,336.5625,62.5,105.5,-0.19244384765625,-0.7242431640625,0.1343994140625,0.6483154296875,38.0,-21.0,4.0,870.0,-435.0,-120.0,2195,2022.5655701657615,152.32506678919668,
102,4.888489007949829,0.04500460624694824,22.219947765187033,20.86534301992376,102098.5,905.0,-448.0,-128.0,-29.5,35.0625,6.6875,-0.6875,-0.4375,-0.375,336.5625,62.5625,105.5,-0.19232177734375,-0.72430419921875,0.13421630859375,0.64837646484375,34.0,-13.0,-7.0,870.0,-435.0,-120.0,2111,2040.2524561326093,200.46038989379264,
103,4.93549370765686,0.04700469970703125,21.274468430449602,20.869239452216735,102098.5,900.0,-447.0,-110.0,-29.875,34.25,5.0625,-0.375,1.0625,-0.125,336.625,62.5625,105.4375,-0.1925048828125,-0.72412109375,0.134033203125,0.6485595703125,30.0,-11.0,10.0,870.0,-435.0,-120.0,2013,2034.8019649060875,137.17705120921818,
104,4.980498313903809,0.04500460624694824,22.219947765187033,20.881444675860724,102098.5,896.0,-447.0,-116.0,-28.6875,34.25,5.0625,0.0625,0.9375,0.4375,336.625,62.5625,105.5,-0.192626953125,-0.72418212890625,0.13385009765625,0.64849853515625,25.0,-12.0,3.0,870.0,-435.0,-120.0,2092,2046.2415719248702,160.57913504969818,
105,5.030503273010254,0.05000495910644531,19.998016554144257,20.87266309185164,102098.5,901.0,-453.0,-112.0,-33.1875,32.5,5.5,-0.5625,0.3125,2.5625,336.625,62.5,105.375,-0.19305419921875,-0.72381591796875,0.134033203125,0.64874267578125,31.0,-17.0,7.0,870.0,-435.0,-119.0,2004,2037.793257539896,94.6734018546932,
106,5.078507900238037,0.0480046272277832,20.831325181528314,20.872272344999526,102098.5,917.0,-465.0,-123.0,-29.5,34.6875,5.875,1.0,1.0,-1.4375,336.5625,62.4375,105.3125,-0.193359375,-0.7236328125,0.1343994140625,0.64874267578125,47.0,-28.0,-3.0,869.0,-436.0,-119.0,2018,2033.8346060319168,59.24593011514166,
107,5.124512672424316,0.0460047721862793,21.736875382207526,20.880034227602014,102098.0,901.0,-441.0,-131.0,-29.5,35.0625,4.0,0.375,-1.3125,-0.4375,336.5625,62.5,105.3125,-0.19287109375,-0.7237548828125,0.1343994140625,0.6488037109375,31.0,-5.0,-12.0,870.0,-436.0,-119.0,2004,2027.8676848255334,21.456299556391837,
108,5.1665167808532715,0.04200410842895508,23.807194995969986,20.90383222991552,102098.0,895.0,-440.0,-115.0,-29.5,34.0,5.875,0.5,0.9375,0.0,336.5625,62.5,105.3125,-0.19293212890625,-0.72381591796875,0.13433837890625,0.648681640625,25.0,-4.0,4.0,870.0,-436.0,-119.0,2125,2047.2941478604268,109.66295835585575,
109,5.210521221160889,0.04400444030761719,22.724979411382254,20.919212373098276,102098.0,903.0,-449.0,-121.0,-29.875,35.0625,5.0625,-0.9375,-0.0625,0.625,336.5625,62.5,105.375,-0.19317626953125,-0.72393798828125,0.13433837890625,0.64849853515625,33.0,-12.0,0.0,869.0,-436.0,-120.0,2420,2121.8353182883416,426.5196793396242,
110,5.259526014328003,0.04900479316711426,20.406167139402843,20.91443215611786,102098.0,909.0,-462.0,-103.0,-28.6875,33.1875,5.5,-0.875,-1.125,0.0,336.5625,62.4375,105.3125,-0.193603515625,-0.72369384765625,0.13446044921875,0.64862060546875,39.0,-24.0,16.0,869.0,-437.0,-119.0,1971,2091.6682546306733,218.09691485102277,
111,5.314531564712524,0.055005550384521484,18.179983529105805,20.886130536323996,102098.0,906.0,-448.0,-120.0,-29.0625,35.5,5.0625,0.375,0.9375,0.375,336.5625,62.4375,105.375,-0.19354248046875,-0.7237548828125,0.134521484375,0.64849853515625,36.0,-15.0,2.0,869.0,-437.0,-120.0,1985,2070.3346037045385,96.90844739025334,
112,5.362536191940308,0.0480046272277832,20.831325181528314,20.88563992693081,102098.0,900.0,-450.0,-117.0,-29.875,34.6875,5.5,-0.3125,-0.375,0.0625,336.5625,62.4375,105.375,-0.193603515625,-0.72381591796875,0.13446044921875,0.6484375,34.0,-13.0,0.0,869.0,-437.0,-120.0,2176,2091.467682963631,165.57276713883607,
113,5.405540704727173,0.043004512786865234,23.253373546076485,20.904476753117578,102098.0,909.0,-458.0,-107.0,-28.6875,32.75,6.25,0.5,0.0,0.0625,336.5625,62.4375,105.3125,-0.19384765625,-0.7236328125,0.134521484375,0.64862060546875,42.0,-19.0,11.0,869.0,-437.0,-120.0,1957,2064.574146370905,7.385123237922258,
114,5.449544906616211,0.044004201889038086,22.72510253728998,20.91917801458876,102098.0,902.0,-447.0,-128.0,-29.5,35.5,5.875,0.25,0.625,0.1875,336.5625,62.4375,105.375,-0.19378662109375,-0.72381591796875,0.13433837890625,0.64849853515625,31.0,-9.0,0.0,869.0,-437.0,-120.0,2074,2066.459317096724,14.476238199245,
115,5.494549512863159,0.04500460624694824,22.219947765187033,20.929832323974193,102101.75,908.0,-454.0,-125.0,-29.5,35.5,5.875,-1.0,0.5625,0.5625,336.625,62.4375,105.375,-0.19403076171875,-0.72369384765625,0.13409423828125,0.64849853515625,42.0,-22.0,7.0,869.0,-437.0,-120.0,2036,2060.3674536773797,-15.491186834701534,
116,5.539554119110107,0.04500460624694824,22.219947765187033,20.940313517260957,102101.75,904.0,-449.0,-118.0,-28.375,32.75,6.6875,-0.75,0.5625,-1.0625,336.625,62.4375,105.375,-0.1939697265625,-0.7237548828125,0.1337890625,0.6485595703125,33.0,-7.0,2.0,869.0,-436.0,-120.0,2032,2054.693962941904,-37.605883025469986,
117,5.588558912277222,0.04900479316711426,20.406167139402843,20.935629710007824,102101.75,903.0,-446.0,-127.0,-29.0625,34.6875,5.5,-0.8125,1.0625,0.8125,336.6875,62.4375,105.5,-0.1943359375,-0.723876953125,0.1334228515625,0.6484375,31.0,-12.0,-2.0,869.0,-436.0,-121.0,2195,2082.755170353523,84.43963129461468,
118,5.632563352584839,0.04400444030761719,22.724979411382254,20.949609016976016,102101.75,911.0,-460.0,-115.0,-29.5,34.6875,7.0,-1.4375,-0.875,-0.625,336.75,62.4375,105.5,-0.1947021484375,-0.7237548828125,0.1331787109375,0.64849853515625,38.0,-22.0,0.0,869.0,-436.0,-121.0,2275,2121.2041362828186,242.30209686212672,
119,5.676567792892456,0.04400444030761719,22.724979411382254,20.96337159031168,102101.75,899.0,-441.0,-119.0,-28.375,33.1875,7.375,-0.625,1.0,1.5,336.8125,62.4375,105.5,-0.1947021484375,-0.72381591796875,0.13299560546875,0.64849853515625,30.0,-5.0,1.0,869.0,-436.0,-121.0,2228,2142.563309026255,290.9190296574511,
120,5.721572160720825,0.04500436782836914,22.220065479280787,20.973256410853683,102101.75,924.0,-468.0,-115.0,-29.5,35.0625,5.5,0.0,0.1875,1.25,336.75,62.375,105.4375,-0.19549560546875,-0.7235107421875,0.13330078125,0.64849853515625,55.0,-27.0,-1.0,869.0,-437.0,-120.0,2097,2133.450647221004,192.2384353253181,
121,5.76457667350769,0.043004512786865234,23.253373546076485,20.990266389565193,102101.75,904.0,-450.0,-117.0,-29.875,34.6875,5.5,0.0625,-0.8125,-1.75,336.75,62.375,105.4375,-0.1953125,-0.72357177734375,0.13311767578125,0.64849853515625,34.0,-12.0,3.0,869.0,-437.0,-121.0,2162,2139.1605177768033,180.3454988470028,
122,5.8085808753967285,0.044004201889038086,22.72510253728998,21.003409028314053,102101.75,897.0,-440.0,-125.0,-29.875,34.25,6.6875,-0.875,0.6875,0.8125,336.8125,62.4375,105.5,-0.1953125,-0.72369384765625,0.1329345703125,0.64837646484375,31.0,-11.0,0.0,869.0,-437.0,-121.0,2500,2211.3284142214425,472.2809683985922,
123,5.853585481643677,0.04500460624694824,22.219947765187033,21.01276224387891,102101.75,903.0,-459.0,-123.0,-29.875,34.25,6.6875,-1.0,1.25,-0.125,336.8125,62.375,105.4375,-0.1956787109375,-0.72357177734375,0.1328125,0.64849853515625,34.0,-22.0,-2.0,869.0,-437.0,-121.0,,2211.3284142214425,472.2809683985922,
124,5.894589424133301,0.04100394248962402,24.387898803951554,21.03624036855325,102096.75,903.0,-450.0,-131.0,-29.5,34.6875,5.5,-1.125,1.4375,-0.5,336.875,62.4375,105.4375,-0.19598388671875,-0.72344970703125,0.13238525390625,0.64862060546875,33.0,-13.0,-10.0,869.0,-437.0,-121.0,2284,2225.862731377154,448.71706591447963,
125,5.938593864440918,0.04400444030761719,22.724979411382254,21.048753771237728,102096.75,890.0,-440.0,-131.0,-28.6875,33.1875,5.5,-1.6875,2.125,-1.1875,337.0,62.4375,105.375,-0.19635009765625,-0.722900390625,0.131591796875,0.64923095703125,22.0,-1.0,-12.0,869.0,-436.0,-119.0,2621,2304.8901851017235,718.1531044965452,
126,5.983598470687866,0.04500460624694824,22.219947765187033,21.057562705325584,102096.75,892.0,-442.0,-135.0,-29.5,34.6875,6.25,-2.9375,3.3125,0.25,337.1875,62.5,105.25,-0.1971435546875,-0.7222900390625,0.13079833984375,0.64990234375,27.0,-12.0,-15.0,870.0,-436.0,-118.0,2589,2361.712148081379,827.038693461903,
127,6.0316033363342285,0.048004865646362305,20.83122172170432,21.055761282403164,102096.75,913.0,-471.0,-124.0,-28.375,34.0,6.6875,-4.6875,5.1875,2.25,337.375,62.5,104.9375,-0.1993408203125,-0.720947265625,0.12957763671875,0.65093994140625,43.0,-33.0,-5.0,869.0,-437.0,-116.0,2640,2417.3697184651032,893.5139926004674,
128,6.07760763168335,0.046004295349121094,21.737100686166794,21.06091866357406,102096.75,910.0,-465.0,-141.0,-29.875,35.5,6.25,-7.375,5.5625,-0.6875,337.75,62.5,104.6875,-0.20111083984375,-0.71978759765625,0.1279296875,0.6519775390625,25.0,-12.0,-23.0,870.0,-437.0,-114.0,2659,2465.6957747720826,924.9048644224092,
129,6.122612237930298,0.04500460624694824,22.219947765187033,21.06943817229351,102096.75,908.0,-457.0,-151.0,-29.875,34.6875,7.0,-10.1875,7.8125,1.8125,338.3125,62.5625,104.5625,-0.2039794921875,-0.71856689453125,0.124755859375,0.653076171875,37.0,-20.0,-38.0,870.0,-437.0,-113.0,2715,2515.556619817666,961.5049660261177,
130,6.169616937637329,0.04700469970703125,21.274468430449602,21.071000244268625,102096.75,908.0,-462.0,-132.0,-29.875,35.0625,4.6875,-13.25,9.125,0.625,338.9375,62.5625,104.4375,-0.20745849609375,-0.71728515625,0.1214599609375,0.65399169921875,39.0,-27.0,-14.0,870.0,-436.0,-112.0,2411,2494.645295854133,680.2285125206766,
131,6.2166218757629395,0.04700493812561035,21.274360522031113,21.072537886007893,102096.75,891.0,-452.0,-104.0,-29.875,34.25,6.6875,-14.625,10.375,0.75,339.8125,62.6875,104.1875,-0.21197509765625,-0.7152099609375,0.116455078125,0.65576171875,19.0,-16.0,5.0,871.0,-435.0,-110.0,2205,2436.7162366833063,297.70207211609295,
132,6.26262640953064,0.046004533767700195,21.736988033603343,21.077418860419122,102100.25,886.0,-421.0,-115.0,-30.1875,34.25,5.5,-15.25,9.1875,4.8125,340.6875,62.6875,104.0,-0.21697998046875,-0.71307373046875,0.1116943359375,0.6572265625,14.0,14.0,0.0,871.0,-435.0,-109.0,2115,2372.372989346645,-41.564021787162005,
133,6.305630683898926,0.04300427436828613,23.25350246433779,21.092259706805862,102100.25,910.0,-430.0,-93.0,-32.75,34.6875,5.875,-15.0625,10.875,6.3125,341.25,62.5625,103.75,-0.22222900390625,-0.7109375,0.10845947265625,0.6583251953125,39.0,7.0,14.0,870.0,-438.0,-107.0,2032,2304.2983914773163,-349.8457832923786,
134,6.349635124206543,0.04400444030761719,22.724979411382254,21.103574832064822,102100.25,933.0,-446.0,-81.0,-32.75,34.6875,5.875,-16.5625,11.9375,6.8125,341.9375,62.5,103.4375,-0.22747802734375,-0.70843505859375,0.10479736328125,0.65985107421875,63.0,-6.0,23.0,870.0,-439.0,-105.0,2018,2247.038713181853,-540.1216287072581,
135,6.395639657974243,0.046004533767700195,21.736988033603343,21.108131042323286,102100.25,960.0,-491.0,-55.0,-28.6875,35.0625,7.375,-14.6875,12.1875,4.4375,342.6875,62.375,102.875,-0.23394775390625,-0.70501708984375,0.10040283203125,0.66192626953125,91.0,-48.0,45.0,869.0,-442.0,-101.0,2022,2202.0309705454824,-627.7638555870633,
136,6.4446446895599365,0.04900503158569336,20.4060678596102,21.102792558962093,102100.25,905.0,-450.0,-46.0,-30.1875,33.1875,5.875,-9.625,7.25,-4.625,343.625,62.5625,102.6875,-0.23724365234375,-0.70306396484375,0.095458984375,0.66351318359375,34.0,-9.0,52.0,870.0,-440.0,-99.0,2355,2232.624776436386,-377.351228650946,
137,6.49264931678772,0.0480046272277832,20.831325181528314,21.10078541370869,102100.25,872.0,-442.0,-56.0,-29.0625,34.25,6.6875,-7.1875,5.625,0.25,344.25,62.75,102.5625,-0.239013671875,-0.7020263671875,0.091796875,0.66455078125,0.0,-4.0,41.0,871.0,-437.0,-97.0,2678,2321.699821149109,69.22926147322443,
138,6.540654182434082,0.048004865646362305,20.83122172170432,21.098806961942724,102100.25,895.0,-457.0,-70.0,-29.5,34.0,6.6875,-2.875,2.3125,3.25,344.4375,62.6875,102.3125,-0.24102783203125,-0.7005615234375,0.0908203125,0.66546630859375,23.0,-18.0,25.0,871.0,-439.0,-95.0,2650,2387.3598569192873,328.93916185530327,
139,6.589658975601196,0.04900479316711426,20.406167139402843,21.093656062424472,102100.25,924.0,-481.0,-81.0,-29.0625,33.1875,7.375,-1.125,2.375,3.875,344.375,62.5625,102.125,-0.242431640625,-0.69976806640625,0.091064453125,0.665771484375,53.0,-39.0,13.0,870.0,-441.0,-95.0,2673,2444.48788553543,496.3041495413621,
140,6.632663249969482,0.04300427436828613,23.25350246433779,21.107659883176513,102095.75,929.0,-494.0,-117.0,-28.6875,34.0,8.1875,-1.5,-0.3125,-0.0625,344.375,62.4375,102.125,-0.24334716796875,-0.6995849609375,0.0911865234375,0.66558837890625,59.0,-51.0,-21.0,869.0,-442.0,-95.0,2626,2480.7903084283444,565.875015673453,
141,6.678667783737183,0.046004533767700195,21.736988033603343,21.111994871692904,102095.75,882.0,-446.0,-116.0,-30.1875,33.1875,7.0,-0.4375,0.25,-2.875,344.5,62.5625,102.1875,-0.24267578125,-0.69989013671875,0.09033203125,0.6656494140625,11.0,-5.0,-20.0,870.0,-440.0,-95.0,2467,2478.0322467426754,440.7096217672972,
142,6.725672721862793,0.04700493812561035,21.274360522031113,21.113129626187135,102095.75,882.0,-440.0,-127.0,-29.0625,33.5625,6.6875,-1.4375,-0.875,0.125,344.5625,62.625,102.3125,-0.24273681640625,-0.7001953125,0.08990478515625,0.66534423828125,11.0,0.0,-30.0,870.0,-440.0,-96.0,2458,2474.02579739414,335.520767843039,
143,6.768676996231079,0.04300427436828613,23.25350246433779,21.12672832218541,102095.75,899.0,-447.0,-122.0,-28.6875,33.5625,6.6875,-2.6875,-2.4375,1.1875,344.625,62.5625,102.625,-0.243408203125,-0.700927734375,0.08966064453125,0.6644287109375,29.0,-6.0,-23.0,870.0,-440.0,-99.0,2420,2463.220637915312,218.16505376073303,
144,6.811681270599365,0.04300427436828613,23.25350246433779,21.14015531254141,102095.75,907.0,-469.0,-97.0,-29.5,33.5625,7.0,-2.875,-0.375,2.25,344.625,62.4375,102.8125,-0.244873046875,-0.70098876953125,0.0894775390625,0.663818359375,44.0,-35.0,2.0,869.0,-441.0,-100.0,2097,2389.9765103322497,-166.1044572416163,
145,6.857685804367065,0.046004533767700195,21.736988033603343,21.14415914296658,102095.75,910.0,-471.0,-88.0,-31.375,33.5625,8.1875,-1.5,-0.1875,-1.1875,344.6875,62.4375,102.9375,-0.24566650390625,-0.70111083984375,0.0889892578125,0.6634521484375,41.0,-29.0,13.0,869.0,-442.0,-101.0,2041,2320.1812082658,-436.3114949573237,
146,6.905690670013428,0.048004865646362305,20.83122172170432,21.14198376043335,102095.75,898.0,-459.0,-79.0,-29.875,35.0625,6.6875,0.3125,-1.125,-1.25,344.75,62.5,102.9375,-0.245361328125,-0.7010498046875,0.088623046875,0.66363525390625,28.0,-18.0,22.0,869.0,-441.0,-101.0,1989,2253.94496661264,-625.0055631437299,
147,6.95369553565979,0.048004865646362305,20.83122172170432,21.139838413424602,102095.75,896.0,-465.0,-99.0,-29.875,35.0625,6.6875,0.625,-1.8125,-1.25,344.75,62.5,103.0625,-0.24493408203125,-0.70159912109375,0.0888671875,0.6632080078125,19.0,-14.0,2.0,869.0,-440.0,-102.0,2004,2203.9559732901125,-708.2708112242581,
148,7.000700235366821,0.04700469970703125,21.274468430449602,21.140742357788604,102101.5,894.0,-468.0,-102.0,-32.375,32.75,9.0,1.6875,-2.875,1.5,344.5625,62.4375,103.125,-0.2442626953125,-0.70208740234375,0.08966064453125,0.66290283203125,31.0,-29.0,-2.0,869.0,-441.0,-103.0,2256,2214.36477863209,-522.3282888500881,
149,7.050705194473267,0.05000495910644531,19.998016554144257,21.132637926316143,102101.5,903.0,-480.0,-113.0,-32.375,32.75,9.0,2.5625,-1.1875,-0.1875,344.375,62.375,103.1875,-0.2440185546875,-0.70245361328125,0.0906982421875,0.66241455078125,34.0,-38.0,-9.0,869.0,-441.0,-103.0,2228,2217.091822905672,-406.9555357746746,
150,7.098710060119629,0.048004865646362305,20.83122172170432,21.13059960607437,102101.5,904.0,-467.0,-127.0,-28.375,33.5625,7.0,1.9375,-1.75,-1.8125,344.25,62.375,103.375,-0.24322509765625,-0.70318603515625,0.0914306640625,0.66180419921875,35.0,-25.0,-22.0,869.0,-441.0,-105.0,2509,2275.4734583245377,-82.3322702425202,
151,7.14571475982666,0.04700469970703125,21.274468430449602,21.131545978986562,102101.5,884.0,-455.0,-126.0,-28.0,32.75,7.0,1.1875,-0.75,-1.875,344.1875,62.4375,103.5,-0.2423095703125,-0.70379638671875,0.09149169921875,0.6614990234375,15.0,-13.0,-3.0,869.0,-440.0,-106.0,2092,2238.77876665963,-221.99782807204807,
152,7.189719200134277,0.04400444030761719,22.724979411382254,21.141298535993062,102101.5,904.0,-473.0,-124.0,-32.0625,34.25,7.375,0.0625,-1.75,0.875,344.125,62.375,103.625,-0.24237060546875,-0.70416259765625,0.09185791015625,0.66107177734375,34.0,-34.0,-15.0,869.0,-441.0,-107.0,2027,2196.423013327704,-370.10498694195843,
153,7.238723993301392,0.04900479316711426,20.406167139402843,21.13632183539308,102101.5,910.0,-470.0,-148.0,-29.5,35.0625,8.1875,-0.375,-0.875,-1.6875,344.125,62.375,103.8125,-0.24224853515625,-0.7047119140625,0.09185791015625,0.66046142578125,41.0,-25.0,-46.0,869.0,-440.0,-108.0,2046,2166.3384106621634,-418.86627561667694,
154,7.287729024887085,0.04900503158569336,20.4060678596102,21.1314113730218,102101.5,902.0,-466.0,-175.0,-29.0625,33.5625,7.375,-6.875,3.25,-1.6875,344.4375,62.5,103.9375,-0.2425537109375,-0.70477294921875,0.09051513671875,0.66058349609375,32.0,-27.0,-66.0,869.0,-439.0,-108.0,2444,2221.870728529731,-108.45377113193584,
155,7.336733818054199,0.04900479316711426,20.406167139402843,21.126567195142986,102101.5,888.0,-456.0,-199.0,-27.6875,34.25,8.1875,-12.625,7.75,-4.4375,345.125,62.5625,104.8125,-0.2462158203125,-0.70556640625,0.0867919921875,0.6585693359375,18.0,-18.0,-85.0,870.0,-437.0,-113.0,2256,2228.696582823785,-58.905112186813795,
156,7.3867387771606445,0.05000495910644531,19.998016554144257,21.11892740573725,102100.5,888.0,-466.0,-204.0,-32.0625,31.6875,7.375,-18.8125,12.5625,0.0,346.0,62.5,105.625,-0.25115966796875,-0.70648193359375,0.08062744140625,0.65673828125,17.0,-31.0,-78.0,870.0,-435.0,-121.0,2036,2190.157266259028,-201.26606787893422,
157,7.433743476867676,0.04700469970703125,21.274468430449602,21.119910915483246,102100.5,872.0,-465.0,-200.0,-31.375,31.25,7.75,-25.0,11.8125,-1.0625,347.25,62.4375,106.4375,-0.25970458984375,-0.70587158203125,0.0731201171875,0.65496826171875,-7.0,-31.0,-69.0,869.0,-434.0,-128.0,2570,2266.1258130072224,162.22523559717246,
158,7.479748249053955,0.0460047721862793,21.736875382207526,21.123705603324815,102100.5,876.0,-477.0,-213.0,-29.875,32.5,7.375,-31.625,14.75,2.9375,348.75,62.1875,107.4375,-0.27099609375,-0.70458984375,0.064208984375,0.65264892578125,12.0,-43.0,-65.0,867.0,-435.0,-137.0,2027,2218.300650405778,-78.13373144254379,
159,7.5297532081604,0.05000495910644531,19.998016554144257,21.116229922075416,102100.5,878.0,-475.0,-192.0,-29.5,32.75,8.5625,-39.125,17.0,4.0625,350.625,62.0625,108.0625,-0.2841796875,-0.701416015625,0.05316162109375,0.6514892578125,12.0,-37.0,-39.0,866.0,-436.0,-142.0,2069,2188.4405203246224,-181.9356602884052,
160,7.580758094787598,0.051004886627197266,19.605964567849295,21.106068548739646,102100.5,883.0,-472.0,-166.0,-29.875,32.5,9.0,-41.4375,19.5,5.5625,352.9375,62.0625,108.375,-0.2977294921875,-0.696533203125,0.04010009765625,0.651611328125,11.0,-24.0,-13.0,866.0,-435.0,-144.0,1966,2143.952416259698,-319.9949666282638,
161,7.630763053894043,0.05000495910644531,19.998016554144257,21.09880740142237,102100.5,879.0,-436.0,-182.0,-29.875,32.5,9.6875,-41.375,15.8125,7.75,354.6875,62.0625,108.5625,-0.3114013671875,-0.6915283203125,0.02764892578125,0.65118408203125,25.0,-3.0,-60.0,866.0,-435.0,-147.0,2074,2129.9619330077585,-311.9523564371644,
162,7.680768013000488,0.05000495910644531,19.998016554144257,21.09164080021664,102100.5,915.0,-478.0,-205.0,-30.5625,32.75,10.0625,-43.9375,19.5625,11.1875,356.75,61.8125,108.875,-0.326904296875,-0.685546875,0.015625,0.65032958984375,55.0,-42.0,-65.0,864.0,-437.0,-150.0,2022,2108.369546406207,-335.92286608999314,
163,7.730772972106934,0.05000495910644531,19.998016554144257,21.08456691046461,102100.5,878.0,-475.0,-265.0,-30.1875,32.75,10.0625,-53.25,18.75,2.1875,359.0,61.8125,109.6875,-0.33984375,-0.6815185546875,0.0018310546875,0.64813232421875,-5.0,-36.0,-90.0,865.0,-434.0,-156.0,2013,2089.2956371249657,-345.0263635836968,
164,7.777777910232544,0.04700493812561035,21.274360522031113,21.085713926626717,102096.75,835.0,-435.0,-267.0,-30.1875,32.5,10.875,-58.25,26.5,1.1875,1.3125,62.125,110.125,-0.34674072265625,-0.67840576171875,-0.00775146484375,0.647705078125,-35.0,-6.0,-103.0,867.0,-430.0,-157.0,1989,2069.236509699973,-361.370112586289,
165,7.821782350540161,0.04400444030761719,22.724979411382254,21.09493624411645,102096.75,872.0,-440.0,-230.0,-28.6875,32.5,12.375,-58.75,33.5,11.625,4.375,62.25,110.25,-0.36309814453125,-0.66986083984375,-0.02496337890625,0.64715576171875,4.0,-12.0,-72.0,867.0,-428.0,-158.0,2575,2170.3892077599785,170.64250609484742,
166,7.864786386489868,0.04300403594970703,23.253631384028562,21.10673982006108,102096.75,883.0,-375.0,-230.0,-30.5625,32.75,13.0625,-56.3125,29.4375,9.625,7.1875,62.3125,110.0625,-0.3787841796875,-0.66046142578125,-0.04083251953125,0.64703369140625,15.0,52.0,-74.0,868.0,-427.0,-156.0,2491,2234.511366207983,434.72861209551183,
167,7.906790733337402,0.04200434684753418,23.807059865250682,21.12108510673969,102096.75,888.0,-347.0,-213.0,-30.5625,32.6875,13.5,-57.4375,26.1875,11.4375,9.1875,62.3125,110.0625,-0.390380859375,-0.65374755859375,-0.0521240234375,0.64617919921875,19.0,80.0,-57.0,868.0,-427.0,-156.0,2827,2353.0090929663866,911.9993846430959,
168,7.952795505523682,0.0460047721862793,21.736875382207526,21.124647287021798,102096.75,947.0,-408.0,-189.0,-30.5625,32.375,14.5,-56.4375,30.0625,13.25,11.75,62.125,110.0625,-0.4066162109375,-0.6441650390625,-0.06646728515625,0.6444091796875,80.0,21.0,-31.0,867.0,-429.0,-157.0,2668,2416.0072743731093,1003.4762314232041,
169,7.999800205230713,0.04700469970703125,21.274468430449602,21.12552759623902,102096.75,917.0,-382.0,-176.0,-30.5625,32.375,14.5,-53.5625,28.125,4.3125,14.25,62.25,109.9375,-0.41943359375,-0.63519287109375,-0.0806884765625,0.64349365234375,49.0,46.0,-21.0,868.0,-428.0,-155.0,2303,2393.4058194984877,706.6141974960897,
170,8.043804407119751,0.044004201889038086,22.72510253728998,21.13427818427922,102096.75,902.0,-337.0,-176.0,-32.5,32.375,14.875,-50.125,26.9375,5.125,17.0,62.5625,110.125,-0.4306640625,-0.62750244140625,-0.09619140625,0.6414794921875,32.0,85.0,-20.0,870.0,-423.0,-155.0,2579,2430.5246555987906,733.9972292857202,
171,8.094809770584106,0.05100536346435547,19.605781276293403,21.12464713147434,102096.75,930.0,-359.0,-153.0,-34.0,31.5625,14.5,-41.8125,26.0,5.5625,19.5625,63.0625,110.0,-0.43914794921875,-0.62017822265625,-0.11053466796875,0.6405029296875,55.0,57.0,-1.0,874.0,-417.0,-152.0,2556,2455.619724479033,685.5994697444855,
172,8.140814065933228,0.046004295349121094,21.737100686166794,21.12810814827063,102099.25,944.0,-372.0,-123.0,-31.5,30.0625,16.5,-35.5,24.0,3.1875,21.8125,63.5,109.75,-0.44580078125,-0.61370849609375,-0.1234130859375,0.6397705078125,66.0,37.0,24.0,878.0,-410.0,-147.0,2514,2467.2957795832262,599.2402928790053,
173,8.186818838119507,0.0460047721862793,21.736875382207526,21.13152903719776,102099.25,958.0,-377.0,-121.0,-31.5,30.75,16.0625,-24.25,21.0625,0.5,23.6875,63.8125,109.0625,-0.45281982421875,-0.60577392578125,-0.13458251953125,0.64019775390625,78.0,31.0,19.0,880.0,-408.0,-141.0,2570,2487.836623666581,568.6909879202522,
174,8.232823371887207,0.046004533767700195,21.736988033603343,21.13491230653161,102099.25,990.0,-489.0,-106.0,-31.0625,30.0625,16.75,-19.0,20.5625,8.5,25.0625,64.0,107.6875,-0.4573974609375,-0.597900390625,-0.1429443359375,0.64251708984375,109.0,-80.0,23.0,881.0,-408.0,-130.0,2621,2514.4692989332652,570.7356190511532,
175,8.28082823753357,0.048004865646362305,20.83122172170432,21.133151779045168,102099.25,933.0,-483.0,-10.0,-31.5,31.0625,16.375,-14.625,22.5,2.6875,26.0,64.0625,106.625,-0.46099853515625,-0.59161376953125,-0.1488037109375,0.64447021484375,46.0,-65.0,98.0,882.0,-410.0,-122.0,3071,2625.7754391466124,920.3170723951914,
176,8.324832677841187,0.04400444030761719,22.724979411382254,21.141566060357228,102099.25,982.0,-595.0,41.0,-32.5,30.75,16.375,-4.0625,19.8125,21.5625,25.5625,63.75,104.6875,-0.4620361328125,-0.58538818359375,-0.14764404296875,0.649658203125,102.0,-176.0,151.0,879.0,-419.0,-110.0,2654,2631.42035131729,761.9097604876961,
177,8.367836952209473,0.04300427436828613,23.25350246433779,21.152419796284907,102099.25,985.0,-634.0,13.0,-32.1875,32.5625,15.5,1.0,8.4375,12.3125,24.25,63.1875,103.5,-0.46038818359375,-0.58380126953125,-0.14080810546875,0.65380859375,110.0,-205.0,117.0,875.0,-429.0,-103.0,2467,2598.536281053832,456.59384660840163,
178,8.413841485977173,0.046004533767700195,21.736988033603343,21.155616052033015,102099.25,845.0,-521.0,3.0,-32.5,33.375,15.875,2.625,-0.5,-6.875,23.375,63.3125,102.875,-0.45465087890625,-0.58599853515625,-0.13616943359375,0.65679931640625,-30.0,-92.0,101.0,876.0,-429.0,-98.0,2514,2581.629024843066,291.7725120998229,
179,8.459846019744873,0.046004533767700195,21.736988033603343,21.158777545385888,102099.25,796.0,-502.0,-5.0,-35.1875,32.5625,15.0625,-1.5,5.875,-0.9375,23.125,63.5,102.875,-0.45068359375,-0.58868408203125,-0.1346435546875,0.65740966796875,-81.0,-76.0,92.0,878.0,-425.0,-98.0,2406,2546.503219874453,80.71216922517317,
180,8.50285029411316,0.04300427436828613,23.25350246433779,21.169371889873297,102099.25,835.0,-535.0,-23.0,-33.0,34.5,15.875,-3.0625,15.1875,6.125,23.25,63.4375,102.0625,-0.4517822265625,-0.58551025390625,-0.1358642578125,0.6593017578125,-42.0,-107.0,67.0,877.0,-428.0,-91.0,2434,2524.0025758995625,-40.074020643721724,
181,8.547854900360107,0.04500460624694824,22.219947765187033,21.174903190316762,102097.5,838.0,-510.0,31.0,-33.0,34.5,15.875,-5.9375,23.25,4.1875,23.6875,63.375,100.0,-0.4530029296875,-0.57781982421875,-0.13946533203125,0.6644287109375,-36.0,-69.0,108.0,876.0,-432.0,-76.0,2364,2492.00206071965,-174.2691716663227,
182,8.596859693527222,0.04900479316711426,20.406167139402843,21.17052115402466,102097.5,826.0,-442.0,61.0,-34.5,34.0,15.375,-4.0,25.25,0.4375,24.3125,63.5,98.375,-0.4532470703125,-0.572021484375,-0.14404296875,0.6683349609375,-51.0,-10.0,125.0,877.0,-432.0,-63.0,2364,2466.40164857572,-243.89659514238514,
183,8.64186429977417,0.04500460624694824,22.219947765187033,21.17598629786193,102097.5,889.0,-426.0,43.0,-34.0625,34.0,15.0,-1.6875,21.0625,5.75,24.8125,63.5,96.375,-0.45367431640625,-0.5648193359375,-0.14825439453125,0.67315673828125,11.0,8.0,92.0,877.0,-434.0,-48.0,2266,2426.321318860576,-373.2338426503038,
184,8.684868574142456,0.04300427436828613,23.25350246433779,21.186273393684388,102097.5,928.0,-429.0,29.0,-34.0625,34.0,13.875,0.5,21.75,8.0,24.875,63.25,94.625,-0.4539794921875,-0.55865478515625,-0.149658203125,0.67779541015625,52.0,9.0,64.0,875.0,-439.0,-35.0,2205,2382.057055088461,-504.4469074616384,
185,8.73287320137024,0.0480046272277832,20.831325181528314,21.184322242417583,102097.5,947.0,-435.0,50.0,-34.875,34.375,14.1875,0.125,27.0625,4.625,25.125,63.0,92.25,-0.45391845703125,-0.55047607421875,-0.15264892578125,0.683837890625,83.0,13.0,85.0,874.0,-444.0,-17.0,2275,2360.645644070769,-492.7631390702907,
186,8.77987790107727,0.04700469970703125,21.274468430449602,21.184804856702875,102097.5,968.0,-413.0,2.0,-35.1875,35.5,13.0625,-0.6875,21.9375,2.6875,24.75,63.0,89.9375,-0.4486083984375,-0.54656982421875,-0.15155029296875,0.690673828125,102.0,35.0,8.0,873.0,-445.0,0.0,2176,2323.716515256615,-551.3400282803776,
187,8.824882507324219,0.04500460624694824,22.219947765187033,21.190083816390665,102097.5,999.0,-425.0,5.0,-35.5625,35.1875,12.25,-13.8125,27.5,1.75,24.625,62.875,88.375,-0.4462890625,-0.54254150390625,-0.1519775390625,0.6951904296875,117.0,7.0,3.0,872.0,-446.0,12.0,2101,2279.1732122052917,-639.0219960421615,
188,8.873887538909912,0.04900503158569336,20.4060678596102,21.185754177711196,102097.5,952.0,-377.0,12.0,-36.375,35.1875,13.0625,-8.0625,14.25,-11.8125,25.5625,63.375,86.8125,-0.44293212890625,-0.53985595703125,-0.1585693359375,0.69805908203125,72.0,54.0,-38.0,876.0,-438.0,24.0,2074,2238.1385697642336,-678.688736483144,
189,8.918891906738281,0.04500436782836914,22.220065479280787,21.190973270705218,102098.5,940.0,-418.0,27.0,-38.75,34.75,12.375,-6.6875,21.625,-1.4375,25.75,63.4375,85.8125,-0.44085693359375,-0.5379638671875,-0.16015625,0.700439453125,69.0,18.0,-4.0,877.0,-436.0,31.0,1999,2190.3108558113872,-755.4979763378267,
190,8.967896938323975,0.04900503158569336,20.4060678596102,21.18668415869523,102098.5,972.0,-472.0,43.0,-40.0,33.6875,13.1875,-21.5,2.375,-6.125,26.6875,63.5625,85.75,-0.44439697265625,-0.53497314453125,-0.1661376953125,0.6990966796875,91.0,-38.0,11.0,878.0,-435.0,32.0,1975,2147.24868464911,-780.1442984541766,
191,9.013901472091675,0.046004533767700195,21.736988033603343,21.189492761970303,102098.5,902.0,-392.0,36.0,-38.75,32.1875,13.1875,-17.125,2.375,-14.8125,28.125,64.1875,86.125,-0.4461669921875,-0.53521728515625,-0.17449951171875,0.69573974609375,19.0,33.0,7.0,883.0,-425.0,28.0,1919,2101.5989477192884,-822.5729958394766,
192,9.057905912399292,0.04400444030761719,22.724979411382254,21.196952348243407,102098.5,893.0,-455.0,59.0,-40.25,31.0,13.1875,-30.875,-0.9375,-7.25,29.375,64.5625,87.0625,-0.4503173828125,-0.53509521484375,-0.1812744140625,0.69140625,33.0,-27.0,25.0,885.0,-420.0,21.0,1812,2043.679158175431,-921.3036016507318,
193,9.100910186767578,0.04300427436828613,23.25350246433779,21.206670106536773,102098.5,871.0,-521.0,5.0,-40.25,31.0,12.0625,-39.125,-0.75,5.125,30.875,64.5625,89.0625,-0.46112060546875,-0.532958984375,-0.1890869140625,0.68377685546875,-14.0,-101.0,-1.0,885.0,-420.0,6.0,1891,2013.143326540345,-879.0558885560006,
194,9.14791488647461,0.04700469970703125,21.274468430449602,21.207018474432157,102098.5,848.0,-470.0,89.0,-41.0,32.875,14.375,-34.75,-7.625,19.625,31.9375,64.125,90.5625,-0.47265625,-0.52813720703125,-0.194091796875,0.67822265625,-34.0,-42.0,94.0,882.0,-427.0,-4.0,1943,1999.114661232276,-762.9351902883724,
195,9.193919658660889,0.0460047721862793,21.736875382207526,21.209669786085787,102098.5,899.0,-653.0,-50.0,-44.75,31.0,16.0,-16.6875,2.6875,11.8125,32.125,63.3125,92.0,-0.4833984375,-0.52374267578125,-0.19427490234375,0.67401123046875,-14.0,-182.0,-54.0,876.0,-439.0,-15.0,1840,1967.2917289858208,-748.6943747382237,
196,9.245924711227417,0.05200505256652832,19.228900859598856,21.198528662254333,102098.5,777.0,-602.0,-226.0,-42.0,30.0625,16.75,-41.5,-10.5625,6.4375,33.125,63.0,94.125,-0.4945068359375,-0.52154541015625,-0.1982421875,0.66644287109375,-111.0,-155.0,-173.0,873.0,-443.0,-32.0,,1967.2917289858208,-748.6943747382237,
197,9.289928913116455,0.044004201889038086,22.72510253728998,21.20575968260162,102094.25,750.0,-574.0,-170.0,-42.0,31.0625,17.5625,-55.0,-38.0625,14.0625,34.0625,62.4375,98.0625,-0.51397705078125,-0.5225830078125,-0.20013427734375,0.650146484375,-167.0,-184.0,-186.0,868.0,-450.0,-73.0,1582,1890.2333831886567,-949.1872617094793,
198,9.336933612823486,0.04700469970703125,21.274468430449602,21.206105581393853,102094.25,850.0,-530.0,-210.0,-42.0,28.5625,19.5,-24.5,-1.3125,27.8125,34.1875,61.25,100.5,-0.5255126953125,-0.5174560546875,-0.19873046875,0.64544677734375,-9.0,-67.0,-124.0,859.0,-463.0,-86.0,1540,1820.1867065509255,-1057.3909715250486,
199,9.384938478469849,0.048004865646362305,20.83122172170432,21.204188014287933,102094.25,864.0,-538.0,-128.0,-39.5,27.0625,21.75,4.125,37.5625,47.25,32.875,59.4375,97.1875,-0.5325927734375,-0.49652099609375,-0.19329833984375,0.6575927734375,-21.0,-44.0,-65.0,842.0,-498.0,-59.0,1629,1781.9493652407405,-1005.2188841962285,
200,9.430943012237549,0.046004533767700195,21.736988033603343,21.20678703502724,102094.25,766.0,-581.0,-153.0,-42.375,29.0625,21.0625,-38.625,-13.75,-3.75,33.5,59.0,98.0,-0.54180908203125,-0.4949951171875,-0.1976318359375,0.64990234375,-31.0,-76.0,-87.0,840.0,-498.0,-75.0,1577,1740.9594921925925,-982.3743833462853,
201,9.476947784423828,0.0460047721862793,21.736875382207526,21.209360289012107,102094.25,867.0,-524.0,-86.0,-39.5,27.75,21.5,-21.6875,-2.9375,7.875,34.3125,58.875,99.6875,-0.54852294921875,-0.49359130859375,-0.19970703125,0.64471435546875,28.0,-26.0,-43.0,838.0,-500.0,-87.0,1568,1706.3675937540743,-936.2834637954383,
202,9.518951892852783,0.04200410842895508,23.807194995969986,21.22082370766784,102094.25,911.0,-553.0,-117.0,-38.25,28.5625,21.6875,-7.3125,32.1875,13.5,34.75,58.5625,99.3125,-0.55126953125,-0.4881591796875,-0.20233154296875,0.6456298828125,38.0,-74.0,-65.0,836.0,-504.0,-82.0,1591,1683.2940750032596,-858.8899230651134,
203,9.564956426620483,0.046004533767700195,21.736988033603343,21.223306301221125,102094.25,984.0,-582.0,-99.0,-39.375,27.875,22.375,31.125,80.0625,19.1875,34.9375,58.0625,94.4375,-0.54693603515625,-0.47039794921875,-0.2080078125,0.6605224609375,152.0,-65.0,-59.0,832.0,-516.0,-40.0,1587,1664.0352600026079,-770.8376646942004,
204,9.611961126327515,0.04700469970703125,21.274468430449602,21.223556495795275,102094.25,840.0,-469.0,-52.0,-42.6875,26.5,19.375,-25.6875,-28.1875,3.6875,34.875,57.5625,93.625,-0.54925537109375,-0.464111328125,-0.20831298828125,0.6629638671875,12.0,54.0,-18.0,827.0,-524.0,-33.0,1610,1653.2282080020864,-662.6529890776246,
205,9.659965991973877,0.048004865646362305,20.83122172170432,21.221606801755538,102097.75,980.0,-419.0,-5.0,-39.25,28.1875,20.1875,0.5625,-7.125,-6.5625,34.75,57.4375,94.625,-0.55218505859375,-0.4656982421875,-0.206787109375,0.659912109375,153.0,106.0,36.0,826.0,-525.0,-42.0,1596,1641.7825664016693,-577.8077308471898,
206,9.702970504760742,0.043004512786865234,23.253373546076485,21.230611790371466,102097.75,999.0,-337.0,4.0,-38.5,26.875,21.375,14.0625,-14.4375,3.0625,34.125,57.4375,95.1875,-0.55145263671875,-0.4693603515625,-0.20379638671875,0.65887451171875,138.0,168.0,38.0,826.0,-525.0,-47.0,1357,1584.8260531213357,-727.1324005156847,
207,9.750975131988525,0.0480046272277832,20.831325181528314,21.22864607878313,102097.75,1034.0,-331.0,-35.0,-38.5,26.875,21.375,28.9375,-24.375,0.75,32.875,57.375,95.4375,-0.5467529296875,-0.47613525390625,-0.195068359375,0.6605224609375,208.0,194.0,15.0,826.0,-526.0,-50.0,1343,1536.4608424970688,-783.20820640999,
208,9.799980163574219,0.04900503158569336,20.4060678596102,21.224532757027426,102097.75,925.0,-557.0,-69.0,-35.5625,26.5,19.75,39.0,-45.625,8.4375,29.8125,56.6875,96.3125,-0.54156494140625,-0.48699951171875,-0.17626953125,0.66217041015625,105.0,-22.0,-9.0,819.0,-534.0,-59.0,1282,1485.5686739976552,-834.2683739123422,
209,9.84698486328125,0.04700469970703125,21.274468430449602,21.224771125560178,102097.75,825.0,-590.0,-95.0,-38.875,27.875,20.5625,36.5625,-31.8125,-26.1875,27.6875,57.0625,97.4375,-0.53070068359375,-0.50360107421875,-0.16314697265625,0.66192626953125,1.0,-62.0,-26.0,823.0,-527.0,-69.0,1198,1428.0549391981244,-912.1295261918474,
210,9.893989324569702,0.04700446128845215,21.27457633996277,21.225007740660068,102097.75,754.0,-521.0,-90.0,-34.0625,28.25,20.5625,37.125,-30.625,-21.5625,26.5625,58.25,98.3125,-0.5166015625,-0.52093505859375,-0.15625,0.6612548828125,-79.0,-11.0,-14.0,834.0,-510.0,-75.0,1184,1379.2439513584995,-937.3902383580968,
211,9.939994096755981,0.0460047721862793,21.736875382207526,21.227376791789244,102097.75,706.0,-527.0,-62.0,-34.0625,26.875,21.0,44.5625,-20.5625,-3.625,24.8125,58.3125,98.6875,-0.5084228515625,-0.5303955078125,-0.1458740234375,0.66253662109375,-128.0,-18.0,15.0,834.0,-508.0,-77.0,1132,1329.7951610867997,-964.8846290738487,
212,9.98499846458435,0.04500436782836914,22.220065479280787,21.231851036526425,102097.75,983.0,-677.0,31.0,-33.25,26.0625,20.1875,39.6875,-23.125,-18.5625,23.3125,59.125,97.875,-0.49188232421875,-0.54150390625,-0.13787841796875,0.66766357421875,141.0,-179.0,100.0,842.0,-497.0,-69.0,1086,1281.0361288694398,-988.5934809742985,
213,10.03100323677063,0.0460047721862793,21.736875382207526,21.234167208640336,102095.5,729.0,-475.0,-28.0,-37.0,28.25,20.1875,21.5,-50.625,32.5625,20.75,58.1875,99.5625,-0.491455078125,-0.54986572265625,-0.12176513671875,0.664306640625,-104.0,33.0,57.0,833.0,-508.0,-86.0,1081,1241.0289030955519,-964.8012009864076,
214,10.079008102416992,0.048004865646362305,20.83122172170432,21.232248037252972,102095.5,721.0,-593.0,-37.0,-31.875,27.875,19.75,17.625,-33.8125,-8.125,18.0625,57.375,101.1875,-0.4886474609375,-0.55987548828125,-0.10528564453125,0.66082763671875,-104.0,-75.0,65.0,826.0,-517.0,-102.0,1063,1205.4231224764417,-920.1833429193356,
215,10.124012231826782,0.04500412940979004,22.22018319462177,21.23663969153515,102095.5,747.0,-487.0,60.0,-31.1875,27.875,20.5625,18.0,-29.75,-0.5,16.8125,57.4375,102.4375,-0.4837646484375,-0.5693359375,-0.0972900390625,0.65753173828125,-78.0,27.0,174.0,826.0,-515.0,-114.0,1002,1164.7384979811534,-916.950636233409,
216,10.174017429351807,0.050005197525024414,19.9979212060819,21.23055140212803,102095.5,758.0,-752.0,2.0,-30.75,29.375,21.375,20.5625,-20.0625,7.3125,14.875,57.0625,103.0,-0.4783935546875,-0.57659912109375,-0.0859375,0.65673828125,-65.0,-233.0,123.0,823.0,-519.0,-120.0,983,1128.3907983849226,-878.9361954962787,
217,10.222022294998169,0.048004865646362305,20.83122172170432,21.22867606209216,102095.5,740.0,-751.0,19.0,-29.6875,29.0625,21.875,12.0625,-11.5625,-1.0625,13.875,56.8125,103.375,-0.47637939453125,-0.58001708984375,-0.08001708984375,0.65594482421875,-80.0,-229.0,143.0,820.0,-521.0,-124.0,955,1093.7126387079381,-847.6266430234091,
218,10.267026662826538,0.04500436782836914,22.220065479280787,21.233021707180807,102095.5,740.0,-776.0,0.0,-28.875,30.1875,21.0625,9.5,0.875,-9.4375,12.25,56.0625,101.75,-0.47442626953125,-0.576171875,-0.071044921875,0.6617431640625,-74.0,-243.0,104.0,813.0,-535.0,-111.0,936,1062.1701109663506,-818.2767207787482,
219,10.31403136253357,0.04700469970703125,21.274468430449602,21.233210594601506,102095.5,775.0,-710.0,22.0,-28.1875,29.375,20.6875,-3.5625,12.125,-8.625,12.75,56.4375,101.375,-0.472900390625,-0.5753173828125,-0.07427978515625,0.6632080078125,-23.0,-159.0,133.0,817.0,-531.0,-107.0,936,1036.9360887730807,-761.989458327796,
220,10.360036134719849,0.0460047721862793,21.736875382207526,21.235447168249586,102095.5,860.0,-633.0,-23.0,-28.1875,29.375,20.6875,-9.5625,2.625,3.6875,13.1875,56.5625,101.1875,-0.47454833984375,-0.573974609375,-0.07659912109375,0.66290283203125,-51.0,-33.0,11.0,817.0,-530.0,-107.0,889,1007.3488710184645,-738.2182997099028,
221,10.404040575027466,0.04400444030761719,22.724979411382254,21.241747223714242,102097.75,732.0,-563.0,-173.0,-29.25,29.375,19.6875,0.25,-2.875,12.25,12.5625,55.6875,101.8125,-0.48004150390625,-0.572265625,-0.07281494140625,0.660888671875,-80.0,-42.0,-76.0,810.0,-540.0,-113.0,889,983.6790968147716,-698.1536660581198,
222,10.46004605293274,0.05600547790527344,17.855396246977488,21.22361592640949,102097.75,871.0,-601.0,-228.0,-27.75,27.6875,20.75,-6.0625,-9.8125,12.875,11.9375,55.125,101.875,-0.4830322265625,-0.5706787109375,-0.06915283203125,0.66046142578125,66.0,-53.0,-112.0,804.0,-548.0,-113.0,872,961.3432774518172,-638.2859138917884,
223,10.50705075263977,0.04700469970703125,21.274468430449602,21.223843421901613,102097.75,802.0,-616.0,-345.0,-27.75,27.6875,20.75,-5.0625,-2.3125,13.375,11.375,54.5625,102.375,-0.48651123046875,-0.57049560546875,-0.06591796875,0.65838623046875,3.0,-62.0,-223.0,799.0,-554.0,-121.0,872,943.4746219614539,-586.6579605382939,
224,10.55305528640747,0.046004533767700195,21.736988033603343,21.226080402375615,102097.75,882.0,-655.0,-371.0,-27.5,28.0,22.25,-0.75,-2.4375,-3.75,11.25,54.1875,102.75,-0.4903564453125,-0.5693359375,-0.06475830078125,0.65667724609375,87.0,-96.0,-244.0,795.0,-559.0,-126.0,815,917.7796975691631,-581.0324212385485,
225,10.603060245513916,0.05000495910644531,19.998016554144257,21.220288745902014,102097.75,905.0,-537.0,-324.0,-30.0,26.1875,21.5,-4.0625,-11.125,3.5625,12.8125,54.4375,103.375,-0.49639892578125,-0.566650390625,-0.07354736328125,0.653564453125,107.0,16.0,-192.0,797.0,-554.0,-132.0,848,903.8237580553306,-520.6441588760905,
226,10.649065017700195,0.0460047721862793,21.736875382207526,21.222520439527532,102097.75,888.0,-667.0,-300.0,-28.875,27.25,20.25,-6.5625,-12.5,9.1875,12.0,53.6875,104.1875,-0.50079345703125,-0.5673828125,-0.06842041015625,0.65008544921875,88.0,-115.0,-160.0,790.0,-562.0,-142.0,843,891.6590064442645,-469.40006506592283,
227,10.693069458007812,0.04400444030761719,22.724979411382254,21.22870340377379,102097.75,883.0,-501.0,-284.0,-29.5625,27.6875,21.75,-4.1875,-22.0625,1.4375,11.5,53.3125,105.625,-0.50421142578125,-0.57122802734375,-0.06524658203125,0.6444091796875,58.0,93.0,-125.0,786.0,-564.0,-157.0,867,886.7272051554116,-397.9350686027802,
228,10.73707365989685,0.044004201889038086,22.72510253728998,21.23483615946343,102097.75,779.0,-585.0,-312.0,-26.1875,28.75,22.1875,5.625,-5.5,-21.25,11.375,53.5,106.4375,-0.501953125,-0.57647705078125,-0.064208984375,0.64154052734375,-5.0,-29.0,-131.0,788.0,-559.0,-165.0,834,876.1817641243294,-366.27730062868176,
229,10.779078006744385,0.04200434684753418,23.807059865250682,21.244859704764774,102098.0,844.0,-549.0,-200.0,-25.875,28.0,23.0,11.5,-0.375,-49.625,12.5625,54.9375,106.8125,-0.49249267578125,-0.58349609375,-0.07086181640625,0.641845703125,41.0,-10.0,-37.0,803.0,-538.0,-162.0,857,872.3454112994635,-311.2882967761067,
230,10.826082706451416,0.04700469970703125,21.274468430449602,21.24498825996773,102098.0,915.0,-538.0,-140.0,-27.375,26.5625,22.0,12.0,1.6875,-12.1875,14.5,56.4375,106.25,-0.4853515625,-0.584716796875,-0.0821533203125,0.644775390625,79.0,-3.0,20.0,817.0,-519.0,-151.0,880,873.8763290395709,-242.51674519457939,
231,10.870086908340454,0.044004201889038086,22.72510253728998,21.250980047156492,102098.0,835.0,-527.0,-81.0,-27.375,27.6875,22.0,10.3125,-11.4375,-8.625,15.0,56.6875,106.3125,-0.4857177734375,-0.5841064453125,-0.0850830078125,0.6446533203125,87.0,-49.0,78.0,819.0,-516.0,-151.0,872,873.5010632316568,-195.71898694838117,
232,10.91309142112732,0.043004512786865234,23.253373546076485,21.2588707495712,102098.0,856.0,-439.0,-35.0,-27.0,28.0,21.5625,12.6875,-16.8125,-6.8125,15.1875,57.0625,107.0625,-0.48248291015625,-0.58917236328125,-0.085693359375,0.6424560546875,32.0,69.0,120.0,823.0,-508.0,-156.0,927,884.2008505853254,-106.8139591190166,
233,10.958096027374268,0.04500460624694824,22.219947765187033,21.262817867077086,102098.0,666.0,-488.0,-122.0,-27.0,28.0,22.0,20.6875,-24.5625,3.75,14.0,56.5,108.5625,-0.48370361328125,-0.594970703125,-0.078369140625,0.6370849609375,-151.0,24.0,50.0,817.0,-513.0,-172.0,913,889.9606804682604,-59.85454346817731,
234,11.007100820541382,0.04900479316711426,20.406167139402843,21.25900396617706,102098.0,687.0,-394.0,-126.0,-25.0625,27.1875,23.0625,17.4375,-0.625,-19.0,13.625,56.25,108.875,-0.4844970703125,-0.595947265625,-0.0760498046875,0.6358642578125,-127.0,120.0,49.0,815.0,-515.0,-176.0,1006,913.1685443746085,46.83307518974875,
235,11.055105686187744,0.048004865646362305,20.83122172170432,21.257146396493447,102098.0,854.0,-398.0,-173.0,-25.0625,27.1875,23.0625,7.125,4.0,-8.0625,13.9375,57.0625,108.1875,-0.47698974609375,-0.59783935546875,-0.078369140625,0.63946533203125,30.0,108.0,-6.0,823.0,-506.0,-166.0,969,924.3348354996867,83.98795739891989,
236,11.100110054016113,0.04500436782836914,22.220065479280787,21.261050462703587,102098.0,806.0,-473.0,-204.0,-30.25,27.875,22.25,5.125,15.3125,-4.9375,13.9375,57.1875,107.375,-0.475341796875,-0.59600830078125,-0.07867431640625,0.64239501953125,-17.0,33.0,-44.0,824.0,-506.0,-159.0,1118,963.0678683997495,239.32047136924228,
237,11.149114847183228,0.04900479316711426,20.406167139402843,21.257292910555762,102098.0,901.0,-503.0,-215.0,-26.5625,29.875,20.75,5.9375,19.25,-19.75,14.875,58.0625,106.5625,-0.468994140625,-0.594970703125,-0.08587646484375,0.64703369140625,77.0,-14.0,-60.0,834.0,-495.0,-145.0,,963.0678683997495,239.32047136924228,
238,11.189119100570679,0.04000425338745117,24.9973419154896,21.27066463953014,102095.25,941.0,-588.0,-92.0,-25.5,28.6875,21.1875,-12.3125,15.3125,5.875,15.5,58.3125,105.75,-0.47039794921875,-0.5911865234375,-0.089599609375,0.64898681640625,106.0,-93.0,45.0,835.0,-494.0,-138.0,1189,1008.2542947197996,417.3644868276682,
239,11.234123468399048,0.04500436782836914,22.220065479280787,21.274467978947662,102095.25,847.0,-572.0,-68.0,-27.375,29.75,21.5625,-0.6875,3.8125,-20.6875,16.8125,59.0625,105.75,-0.46771240234375,-0.59246826171875,-0.09674072265625,0.64874267578125,-1.0,-76.0,50.0,842.0,-482.0,-136.0,1231,1052.8034357758397,531.8685557243199,
240,11.280128002166748,0.046004533767700195,21.736988033603343,21.276354306786192,102095.25,739.0,-539.0,-108.0,-27.6875,27.875,19.25,-12.5,-5.1875,12.5625,16.9375,58.9375,106.4375,-0.47113037109375,-0.59259033203125,-0.0965576171875,0.64617919921875,-109.0,-14.0,17.0,840.0,-484.0,-143.0,1292,1100.642748620672,633.4713587482407,
241,11.324132442474365,0.04400444030761719,22.724979411382254,21.281983518318917,102095.25,828.0,-540.0,-58.0,-26.1875,27.875,20.75,-8.5625,14.75,-0.375,17.3125,58.8125,106.6875,-0.47418212890625,-0.59130859375,-0.09820556640625,0.64483642578125,9.0,-66.0,96.0,839.0,-485.0,-146.0,1245,1129.5141988965374,637.9977096177507,
242,11.371137142181396,0.04700469970703125,21.274468430449602,21.281952453312478,102095.25,767.0,-503.0,-43.0,-26.5625,27.5625,21.5625,-9.5625,-2.875,9.3125,17.375,58.5,107.25,-0.47833251953125,-0.590576171875,-0.098388671875,0.6424560546875,-68.0,-14.0,108.0,836.0,-488.0,-152.0,1226,1148.81135911723,592.5055328766912,
243,11.416141510009766,0.04500436782836914,22.220065479280787,21.28565065411423,102095.25,761.0,-531.0,-59.0,-25.5,27.875,21.5625,-12.4375,3.625,-0.375,17.625,58.3125,107.4375,-0.482177734375,-0.588623046875,-0.0997314453125,0.64117431640625,-72.0,-40.0,94.0,834.0,-491.0,-154.0,1212,1161.449087293784,530.1666558198292,
244,11.45914602279663,0.043004512786865234,23.253373546076485,21.293035232694525,102095.25,815.0,-467.0,-44.0,-29.875,26.0625,20.75,-2.5,8.875,-6.5,18.6875,58.875,107.4375,-0.48101806640625,-0.5882568359375,-0.10565185546875,0.64141845703125,-24.0,15.0,107.0,839.0,-483.0,-151.0,1240,1177.1592698350273,497.1962732775792,
245,11.503150463104248,0.04400444030761719,22.724979411382254,21.298513027872204,102095.25,841.0,-494.0,-65.0,-29.875,26.0625,20.75,-2.5625,-2.75,6.0,18.8125,58.9375,107.1875,-0.48089599609375,-0.58746337890625,-0.10662841796875,0.64208984375,0.0,-11.0,84.0,840.0,-482.0,-149.0,1212,1184.127415868022,429.4272136491248,
246,11.55015516281128,0.04700469970703125,21.274468430449602,21.29841517558663,102096.25,796.0,-522.0,-95.0,-27.375,26.875,22.25,3.5625,-1.875,1.3125,18.3125,58.5,107.4375,-0.4830322265625,-0.58734130859375,-0.103515625,0.64111328125,-40.0,-34.0,57.0,836.0,-488.0,-153.0,1189,1185.1019326944177,347.6882364109195,
247,11.5961594581604,0.046004295349121094,21.737100686166794,21.300155529181016,102096.25,903.0,-514.0,-84.0,-29.875,26.875,22.25,8.3125,-3.4375,5.75,17.75,58.25,107.0625,-0.483154296875,-0.58642578125,-0.10040283203125,0.64227294921875,69.0,-21.0,67.0,833.0,-493.0,-151.0,1198,1187.6815461555343,289.36525263587237,
248,11.644164323806763,0.048004865646362305,20.83122172170432,21.298222277141715,102096.25,781.0,-584.0,-176.0,-26.5625,27.1875,21.1875,7.3125,-4.4375,20.6875,16.8125,57.375,107.0,-0.487548828125,-0.583984375,-0.09503173828125,0.64202880859375,-44.0,-79.0,-22.0,826.0,-505.0,-154.0,1189,1187.9452369244275,232.59080228325402,
249,11.692169189453125,0.048004865646362305,20.83122172170432,21.296304899916215,102096.25,869.0,-582.0,-147.0,-25.875,27.1875,21.1875,4.5625,8.0,14.25,16.5,56.9375,106.0625,-0.49017333984375,-0.57904052734375,-0.09375,0.64471435546875,47.0,-69.0,0.0,822.0,-513.0,-148.0,1161,1182.556189539542,163.62055363793888,
250,11.738173723220825,0.046004533767700195,21.736988033603343,21.298032035890056,102096.25,922.0,-674.0,-89.0,-24.375,27.1875,21.1875,10.75,16.8125,4.4375,16.0625,56.6875,104.5625,-0.48980712890625,-0.57391357421875,-0.09173583984375,0.64990234375,102.0,-153.0,46.0,819.0,-521.0,-135.0,1058,1157.6449516316336,22.597386849061166,
251,11.782178401947021,0.04400467872619629,22.724856286808727,21.303361011620897,102096.25,919.0,-652.0,-58.0,-28.75,27.875,21.5625,5.25,9.5,-1.25,16.0625,56.8125,103.5625,-0.48779296875,-0.57135009765625,-0.09246826171875,0.65350341796875,98.0,-130.0,67.0,820.0,-521.0,-126.0,969,1119.9159613053068,-153.39926712318555,
252,11.827182531356812,0.04500412940979004,22.22018319462177,21.30684965179874,102096.25,888.0,-547.0,-67.0,-25.875,28.6875,21.1875,1.875,-1.6875,8.1875,15.875,56.625,103.0,-0.4876708984375,-0.5692138671875,-0.09161376953125,0.65557861328125,69.0,-22.0,53.0,819.0,-524.0,-121.0,1030,1101.9327690442456,-202.63737899152568,
253,11.87318730354309,0.0460047721862793,21.736875382207526,21.308515862838448,102096.25,847.0,-586.0,-106.0,-25.5,27.875,19.25,10.0,-1.6875,6.25,15.1875,56.3125,102.75,-0.48779296875,-0.5687255859375,-0.08782958984375,0.65643310546875,31.0,-56.0,14.0,816.0,-530.0,-120.0,1016,1084.7462152353964,-236.82629887173204,
254,11.917191743850708,0.04400444030761719,22.724979411382254,21.313746179427252,102097.75,901.0,-594.0,-113.0,-25.5,29.0625,19.25,11.5625,-0.5,-0.5625,14.625,56.1875,102.25,-0.48541259765625,-0.56866455078125,-0.084716796875,0.65863037109375,86.0,-61.0,2.0,815.0,-532.0,-115.0,922,1052.1969721883172,-337.3972147175762,
255,11.960196256637573,0.043004512786865234,23.253373546076485,21.320720373504084,102097.75,899.0,-583.0,-120.0,-25.5,28.6875,19.6875,3.5625,-1.0625,12.4375,14.125,55.9375,101.875,-0.485107421875,-0.56787109375,-0.0819091796875,0.659912109375,94.0,-54.0,-6.0,812.0,-536.0,-113.0,875,1016.7575777506538,-434.73486719520747,
256,12.006200551986694,0.046004295349121094,21.737100686166794,21.322315822688726,102097.75,897.0,-599.0,-125.0,-25.5,28.6875,19.6875,6.0,-1.625,2.5,13.625,55.6875,101.75,-0.4849853515625,-0.56768798828125,-0.07879638671875,0.66058349609375,66.0,-34.0,-4.0,810.0,-540.0,-112.0,880,989.4060622005231,-466.69642324265544,
257,12.055205345153809,0.04900479316711426,20.406167139402843,21.31859164915129,102097.75,844.0,-632.0,-149.0,-25.0625,28.6875,20.75,5.0,1.0,2.25,13.3125,55.625,101.5625,-0.48406982421875,-0.5677490234375,-0.07720947265625,0.661376953125,34.0,-84.0,-29.0,809.0,-541.0,-111.0,839,959.3248497604186,-496.1255883558558,
258,12.099210023880005,0.04400467872619629,22.724856286808727,21.323706216421552,102097.75,864.0,-581.0,-108.0,-26.5625,29.0625,19.6875,1.0625,6.0,-2.0,13.4375,55.6875,101.3125,-0.48358154296875,-0.56689453125,-0.0780029296875,0.66229248046875,54.0,-40.0,0.0,810.0,-541.0,-108.0,707,908.8598798083349,-626.2623086205293,
259,12.144214391708374,0.04500436782836914,22.220065479280787,21.327027969535497,102097.75,860.0,-573.0,-102.0,-23.5625,27.875,17.6875,-0.375,0.1875,-0.3125,13.8125,55.75,101.125,-0.4847412109375,-0.5653076171875,-0.08056640625,0.66259765625,46.0,-23.0,8.0,811.0,-540.0,-106.0,679,862.887903846668,-705.3099101124556,
260,12.189218759536743,0.04500436782836914,22.220065479280787,21.330325193858563,102097.75,869.0,-557.0,-91.0,-25.0625,28.25,19.6875,0.0,-0.75,2.5,14.3125,55.75,101.125,-0.48748779296875,-0.5628662109375,-0.08349609375,0.66229248046875,20.0,9.0,14.0,810.0,-541.0,-106.0,642,818.7103230773345,-760.5736755721258,
261,12.236223459243774,0.04700469970703125,21.274468430449602,21.33011062353796,102097.75,789.0,-563.0,-116.0,-25.5,30.1875,18.875,3.5625,-1.4375,3.9375,14.375,55.5625,101.25,-0.4893798828125,-0.5618896484375,-0.08343505859375,0.66168212890625,-4.0,-65.0,-14.0,809.0,-543.0,-108.0,,818.7103230773345,-760.5736755721258,
262,12.275227546691895,0.03900408744812012,25.638338580029952,21.343799860606865,102097.75,821.0,-591.0,-106.0,-24.375,28.6875,19.6875,0.625,1.875,-0.625,14.625,55.5,101.1875,-0.49151611328125,-0.55975341796875,-0.08514404296875,0.66168212890625,16.0,-24.0,-2.0,808.0,-544.0,-107.0,569,768.7682584618676,-864.5452528571152,
263,12.322232484817505,0.04700493812561035,21.274360522031113,21.343534974206023,102101.75,795.0,-547.0,-121.0,-24.6875,28.6875,19.6875,0.0,1.1875,2.8125,15.0,55.4375,101.125,-0.4940185546875,-0.5574951171875,-0.08740234375,0.66143798828125,-17.0,-6.0,-17.0,807.0,-545.0,-107.0,526,720.2146067694941,-898.2257804386281,
264,12.369236946105957,0.04700446128845215,21.27457633996277,21.343272923808904,102101.75,864.0,-591.0,-81.0,-24.6875,27.875,19.6875,0.875,4.375,5.5,15.4375,55.3125,100.875,-0.4969482421875,-0.553955078125,-0.0899658203125,0.66192626953125,57.0,-43.0,23.0,806.0,-547.0,-105.0,508,677.7716854155954,-899.1716584378137,
265,12.415241479873657,0.046004533767700195,21.736988033603343,21.3447318305964,102101.75,841.0,-564.0,-109.0,-24.0,27.875,18.875,-0.5,-2.0,3.625,15.625,55.125,100.875,-0.50006103515625,-0.55133056640625,-0.09100341796875,0.66162109375,36.0,-14.0,-3.0,804.0,-550.0,-105.0,447,631.6173483324762,-919.988581325182,
266,12.465246438980103,0.05000495910644531,19.998016554144257,21.33932941495571,102101.75,820.0,-559.0,-110.0,-24.6875,29.0625,20.75,-2.5,1.125,4.5625,15.875,54.875,100.9375,-0.50360107421875,-0.5487060546875,-0.09234619140625,0.660888671875,18.0,-5.0,-2.0,802.0,-553.0,-107.0,409,587.093878665981,-914.0670817478479,
267,12.514251470565796,0.04900503158569336,20.4060678596102,21.335674820663353,102101.75,805.0,-562.0,-109.0,-28.375,29.0625,18.5,-1.5,4.5625,0.875,15.9375,54.8125,100.8125,-0.5045166015625,-0.5472412109375,-0.0927734375,0.66131591796875,3.0,-7.0,-3.0,801.0,-554.0,-106.0,414,552.4751029327849,-872.5402827639238,
268,12.560256004333496,0.046004533767700195,21.736988033603343,21.33714471325549,102101.75,814.0,-553.0,-104.0,-28.375,29.0625,18.5,-3.0625,3.875,0.9375,16.125,54.8125,100.6875,-0.50482177734375,-0.5465087890625,-0.09381103515625,0.66156005859375,12.0,0.0,0.0,802.0,-554.0,-104.0,325,506.98008234622796,-895.8171698268443,
269,12.605260610580444,0.04500460624694824,22.219947765187033,21.34029658809356,102101.75,796.0,-531.0,-82.0,-25.0625,27.875,19.25,1.6875,0.0,0.6875,16.25,54.8125,100.5625,-0.505126953125,-0.5455322265625,-0.09454345703125,0.66204833984375,-5.0,22.0,21.0,802.0,-554.0,-103.0,357,476.9840658769824,-849.9557196835408,
270,12.652265310287476,0.04700469970703125,21.274468430449602,21.34005202850629,102101.75,826.0,-559.0,-78.0,-24.0,29.375,20.75,-1.1875,-2.0625,9.6875,16.25,54.5625,100.375,-0.5079345703125,-0.5426025390625,-0.0946044921875,0.662353515625,27.0,0.0,24.0,799.0,-559.0,-102.0,409,463.38725270158596,-737.8175702777712,
271,12.697269916534424,0.04500460624694824,22.219947765187033,21.34317075886549,102102.25,792.0,-603.0,-111.0,-24.6875,28.25,18.5,3.375,0.6875,6.125,16.0625,54.1875,100.25,-0.51068115234375,-0.5399169921875,-0.09356689453125,0.6624755859375,10.0,-42.0,-2.0,795.0,-564.0,-102.0,395,449.7098021612688,-651.0365035355724,
272,12.744274377822876,0.04700446128845215,21.27457633996277,21.342917763393775,102102.25,751.0,-600.0,-171.0,-24.375,29.375,18.0625,2.75,-2.375,4.6875,15.75,53.875,100.25,-0.51202392578125,-0.5389404296875,-0.0919189453125,0.66253662109375,-67.0,-19.0,-79.0,792.0,-568.0,-103.0,381,435.96784172901505,-579.3000800838039,
273,12.790278911590576,0.046004533767700195,21.736988033603343,21.344335169470533,102102.25,600.0,-682.0,-259.0,-25.0625,29.75,20.0,-0.875,-3.0,22.6875,15.5,53.375,100.3125,-0.5174560546875,-0.53472900390625,-0.0889892578125,0.662109375,-184.0,-103.0,-154.0,784.0,-578.0,-105.0,367,422.17427338321204,-523.4061900817251,
274,12.838283777236938,0.048004865646362305,20.83122172170432,21.342416537467315,102102.25,636.0,-756.0,-271.0,-24.375,29.75,18.75,-3.375,17.625,8.4375,15.0625,52.5,99.875,-0.52252197265625,-0.5274658203125,-0.08905029296875,0.6639404296875,-141.0,-167.0,-170.0,778.0,-588.0,-100.0,390,415.73941870656967,-445.53412896859675,
275,12.884288549423218,0.0460047721862793,21.736875382207526,21.34382499624403,102102.25,693.0,-718.0,-254.0,-27.0,29.0625,18.875,-15.5,23.5,13.1875,16.0,52.3125,98.875,-0.52740478515625,-0.51800537109375,-0.09478759765625,0.666748046875,-49.0,-145.0,-123.0,775.0,-593.0,-91.0,329,398.39153496525574,-431.8450605808704,
276,12.928292989730835,0.04400444030761719,22.724979411382254,21.348526075270073,102102.25,771.0,-711.0,-191.0,-24.0,29.75,19.6875,-19.8125,23.1875,10.375,16.75,52.0,98.25,-0.5330810546875,-0.50982666015625,-0.0997314453125,0.66778564453125,-41.0,-119.0,-135.0,772.0,-598.0,-86.0,353,389.31322797220463,-386.7369163661551,
277,12.972297191619873,0.044004201889038086,22.72510253728998,21.353195652882704,102102.25,827.0,-699.0,-122.0,-24.375,29.375,18.75,-28.375,22.75,19.3125,17.5625,51.1875,98.125,-0.54217529296875,-0.50030517578125,-0.1031494140625,0.6671142578125,62.0,-91.0,-35.0,764.0,-608.0,-86.0,301,371.6505823777637,-389.66661953562067,
278,13.019301891326904,0.04700469970703125,21.274468430449602,21.352911417254703,102102.25,829.0,-687.0,-108.0,-24.0,30.1875,18.75,-31.125,7.8125,22.25,18.5625,50.5625,98.25,-0.55224609375,-0.49237060546875,-0.1083984375,0.6651611328125,118.0,-103.0,-23.0,760.0,-613.0,-87.0,297,356.720465902211,-375.25935395291293,
279,13.068306684494019,0.04900479316711426,20.406167139402843,21.34936122451448,102101.0,770.0,-633.0,-115.0,-23.25,30.5625,20.375,-30.6875,9.3125,14.0,19.25,49.5,99.3125,-0.56707763671875,-0.4805908203125,-0.11199951171875,0.65948486328125,24.0,-5.0,-12.0,746.0,-627.0,-102.0,339,353.1763727217688,-314.67175472187455,
280,13.113311290740967,0.04500460624694824,22.219947765187033,21.35234905905895,102101.0,809.0,-668.0,-52.0,-25.0625,29.75,20.75,-25.1875,12.4375,14.3125,20.3125,49.0625,99.75,-0.57666015625,-0.47222900390625,-0.1177978515625,0.65618896484375,68.0,-35.0,56.0,740.0,-633.0,-108.0,311,344.74109817741504,-289.2236757296102,
281,13.157315731048584,0.04400444030761719,22.724979411382254,21.35693980018259,102101.0,761.0,-626.0,-82.0,-24.6875,30.5625,21.1875,-22.875,10.0,10.0,21.625,48.8125,100.0625,-0.58477783203125,-0.46441650390625,-0.124755859375,0.65325927734375,22.0,9.0,30.0,738.0,-635.0,-113.0,292,334.19287854193203,-279.32055539230606,
282,13.204320669174194,0.04700493812561035,21.274360522031113,21.35664583323365,102101.0,875.0,-627.0,-7.0,-24.6875,30.5625,21.1875,-17.625,13.875,8.75,22.1875,48.4375,100.3125,-0.5908203125,-0.4586181640625,-0.12786865234375,0.6513671875,141.0,12.0,109.0,734.0,-639.0,-116.0,282,323.7543028335457,-267.8712489051903,
283,13.252325057983398,0.0480043888092041,20.831428642379993,21.35474331951408,102101.0,917.0,-644.0,27.0,-27.0,30.875,21.1875,-9.4375,7.625,1.375,23.25,48.3125,100.3125,-0.59619140625,-0.45196533203125,-0.13397216796875,0.64984130859375,184.0,-3.0,144.0,732.0,-641.0,-117.0,301,319.20344226683653,-233.25718455551686,
284,13.30032992362976,0.048004865646362305,20.83122172170432,21.35285377360731,102101.0,830.0,-609.0,-47.0,-27.0,29.75,20.75,-5.0,-1.4375,0.4375,23.5625,48.375,100.5,-0.5972900390625,-0.45147705078125,-0.13555908203125,0.64886474609375,96.0,31.0,70.0,733.0,-640.0,-118.0,297,314.7627538134692,-205.1067407982349,
285,13.347334623336792,0.04700469970703125,21.274468430449602,21.35257772751867,102101.0,731.0,-544.0,-126.0,-23.5625,29.0,21.5625,-0.375,-5.375,-5.25,23.75,48.5,100.8125,-0.59783935546875,-0.45269775390625,-0.13629150390625,0.64739990234375,-2.0,93.0,-4.0,734.0,-638.0,-122.0,292,310.21020305077536,-183.4560121343778,
286,13.396339654922485,0.04900503158569336,20.4060678596102,21.34911530814384,102101.0,693.0,-620.0,-137.0,-24.0,29.75,20.75,-1.3125,1.4375,-2.0,23.875,48.6875,100.6875,-0.5960693359375,-0.45404052734375,-0.13714599609375,0.64788818359375,-43.0,15.0,-16.0,737.0,-635.0,-120.0,264,300.9681624406203,-184.48355127792178,
287,13.4453444480896,0.04900479316711426,20.406167139402843,21.345678506643154,102097.5,698.0,-688.0,-144.0,-24.0,29.75,21.5625,-2.6875,5.375,5.0625,24.0,48.6875,100.5625,-0.59625244140625,-0.452880859375,-0.13787841796875,0.64837646484375,-38.0,-52.0,-25.0,737.0,-635.0,-118.0,254,291.5745299524962,-185.9244479420943,
288,13.488348960876465,0.043004512786865234,23.253373546076485,21.351760755549577,102097.5,874.0,-581.0,-113.0,-23.25,29.75,22.0,-9.9375,16.625,-3.3125,24.875,48.875,100.3125,-0.5977783203125,-0.44921875,-0.14324951171875,0.6483154296875,134.0,52.0,2.0,739.0,-633.0,-116.0,278,288.859623961997,-161.36570298158733,
289,13.53035283088684,0.04200387001037598,23.80733012822332,21.359383869153515,102097.5,841.0,-429.0,-118.0,-25.5,27.5625,22.0,-21.9375,3.0625,2.0625,25.5625,48.8125,100.8125,-0.6024169921875,-0.4462890625,-0.1466064453125,0.64532470703125,103.0,204.0,2.0,738.0,-634.0,-121.0,325,296.0876991695976,-94.67632785347499,
290,13.578357696533203,0.048004865646362305,20.83122172170432,21.357516607037255,102097.5,949.0,-554.0,94.0,-24.375,29.375,21.5625,-0.625,-2.6875,-11.9375,26.5,49.375,101.3125,-0.60198974609375,-0.44879150390625,-0.15167236328125,0.642822265625,204.0,70.0,219.0,744.0,-625.0,-125.0,254,287.6701593356781,-110.8105900091112,
291,13.627362966537476,0.04900527000427246,20.405968580783583,21.354094751461595,102097.5,733.0,-583.0,-58.0,-24.6875,27.875,21.1875,-2.875,-19.9375,5.25,25.8125,48.9375,102.375,-0.60540771484375,-0.45172119140625,-0.14642333984375,0.63873291015625,-5.0,45.0,79.0,739.0,-628.0,-138.0,297,289.5361274685425,-81.0330945888941,
292,13.675367593765259,0.0480046272277832,20.831325181528314,21.352259674038,102097.5,831.0,-277.0,-283.0,-24.0,29.75,20.75,19.3125,12.5625,-19.6875,25.8125,49.25,102.4375,-0.6029052734375,-0.45477294921875,-0.1466064453125,0.638916015625,42.0,358.0,-132.0,743.0,-624.0,-137.0,292,290.02890197483396,-62.7734464747703,
293,13.718371868133545,0.04300427436828613,23.25350246433779,21.35821967915965,102097.5,1001.0,-396.0,-181.0,-24.0,28.6875,22.6875,31.9375,17.1875,-21.4375,26.375,50.4375,100.4375,-0.5908203125,-0.456787109375,-0.1519775390625,0.64739990234375,238.0,162.0,-40.0,756.0,-614.0,-113.0,301,292.22312157986715,-40.0140989812287,
294,13.766376733779907,0.048004865646362305,20.83122172170432,21.356381979477824,102097.5,943.0,-682.0,-144.0,-28.0625,29.75,20.75,25.25,-11.4375,-9.375,26.0,51.1875,99.125,-0.5797119140625,-0.46221923828125,-0.1510009765625,0.65380859375,75.0,-22.0,-2.0,764.0,-606.0,-97.0,282,290.17849726389375,-40.52968367770898,
295,13.815381526947021,0.04900479316711426,20.406167139402843,21.353011454993112,102097.25,693.0,-976.0,-43.0,-25.5,29.0625,19.6875,33.875,-2.1875,-31.1875,25.6875,52.0625,98.3125,-0.56915283203125,-0.46966552734375,-0.15008544921875,0.65802001953125,-80.0,-380.0,43.0,776.0,-593.0,-85.0,325,297.142797811115,-4.000810747040969,
296,13.862386226654053,0.04700469970703125,21.274468430449602,21.352745130622807,102097.25,534.0,-859.0,-59.0,-25.5,29.0625,19.6875,-12.5625,-14.625,8.1875,25.1875,52.0625,98.9375,-0.5672607421875,-0.47381591796875,-0.1470947265625,0.67181396484375,-229.0,-323.0,9.0,773.0,-595.0,-93.0,325,302.714238248892,20.505238143490764,
297,13.910391092300415,0.048004865646362305,20.83122172170432,21.35094534936501,102097.25,605.0,-692.0,-70.0,-25.5,29.0625,19.6875,-8.8125,-8.0625,-10.0,25.6875,52.4375,99.8125,-0.56915283203125,-0.4775390625,-0.14892578125,0.652587890625,-171.0,-103.0,31.0,777.0,-589.0,-101.0,343,310.7713905991136,49.972255925396055,
298,13.955395698547363,0.04500460624694824,22.219947765187033,21.353747785956312,102097.25,598.0,-457.0,-46.0,-25.5,29.0625,20.0,-5.5,-5.5,21.8125,25.5,51.8125,101.0,-0.57635498046875,-0.4764404296875,-0.14654541015625,0.6475830078125,-172.0,137.0,69.0,770.0,-595.0,-116.0,301,308.81711247929087,31.293013192095042,
299,14.001400232315063,0.046004533767700195,21.736988033603343,21.35500700207909,102097.25,831.0,-565.0,-15.0,-25.0625,27.5625,21.1875,9.625,-6.5,18.3125,24.625,51.0,100.75,-0.5794677734375,-0.472412109375,-0.1417236328125,0.6488037109375,97.0,24.0,104.0,762.0,-606.0,-115.0,306,308.2536899834327,22.584988943609673,
300,14.047404766082764,0.046004533767700195,21.736988033603343,21.35625797046478,102097.25,806.0,-726.0,-65.0,-28.75,29.25,20.75,8.4375,-17.0,22.5625,22.375,49.5625,101.125,-0.58355712890625,-0.47137451171875,-0.1282958984375,0.648681640625,31.0,-107.0,27.0,746.0,-623.0,-123.0,301,306.80295198674617,11.761056260113932,
301,14.092409133911133,0.04500436782836914,22.220065479280787,21.359016555635726,102097.25,751.0,-767.0,-161.0,-24.0,29.375,21.1875,2.3125,-9.0625,12.5,21.1875,48.8125,101.25,-0.58563232421875,-0.4705810546875,-0.12152099609375,0.648681640625,13.0,-135.0,-50.0,738.0,-632.0,-126.0,311,307.64236158939696,13.139192275058669,
302,14.138413906097412,0.0460047721862793,21.736875382207526,21.360246064783674,102097.25,714.0,-731.0,-225.0,-22.875,30.875,20.75,3.0,17.6875,-3.3125,21.25,48.8125,100.75,-0.58489990234375,-0.46856689453125,-0.12225341796875,0.65069580078125,14.0,-108.0,-74.0,738.0,-634.0,-120.0,282,302.51388927151754,-11.784038914922228,
303,14.184418439865112,0.046004533767700195,21.736988033603343,21.36146795757397,102099.5,965.0,-706.0,-70.0,-27.0,30.1875,20.75,-2.9375,11.0625,-3.5,22.3125,49.3125,99.8125,-0.5826416015625,-0.4649658203125,-0.12921142578125,0.6539306640625,215.0,-89.0,48.0,743.0,-629.0,-109.0,311,304.21111141721406,-2.0487316376634386,
304,14.231423139572144,0.04700469970703125,21.274468430449602,21.361180608472832,102099.5,818.0,-626.0,-95.0,-24.0,30.0625,20.75,-3.875,-3.25,6.625,22.25,49.125,100.0625,-0.58447265625,-0.46429443359375,-0.1285400390625,0.6529541015625,76.0,-17.0,2.0,741.0,-631.0,-112.0,311,305.5688891337713,4.1382145231621665,
305,14.280428171157837,0.04900503158569336,20.4060678596102,21.357903022544388,102099.5,758.0,-677.0,-139.0,-23.25,28.5625,20.375,-5.25,-7.8125,5.5,22.0,48.9375,100.4375,-0.58612060546875,-0.46490478515625,-0.12677001953125,0.6513671875,-40.0,-48.0,-54.0,739.0,-633.0,-117.0,320,308.45511130701703,15.089860723562637,
306,14.327432870864868,0.04700469970703125,21.274468430449602,21.357629294655943,102099.5,657.0,-623.0,-164.0,-23.25,29.0625,19.25,-1.5625,3.625,-6.3125,22.1875,48.9375,100.6875,-0.5872802734375,-0.46502685546875,-0.12750244140625,0.65008544921875,-65.0,-14.0,-41.0,739.0,-632.0,-119.0,306,307.96408904561366,9.982641059075306,
307,14.37543773651123,0.048004865646362305,20.83122172170432,21.355871426458958,102099.5,751.0,-635.0,-109.0,-22.1875,29.0625,20.375,-7.4375,3.625,4.5,22.5,48.9375,100.625,-0.5885009765625,-0.46307373046875,-0.1295166015625,0.64996337890625,15.0,-16.0,6.0,739.0,-632.0,-119.0,362,318.771271236491,53.01147452826416,
308,14.422442197799683,0.04700446128845215,21.27457633996277,21.35560647606472,102099.5,737.0,-671.0,-114.0,-23.25,29.75,20.75,-6.0625,4.0625,-0.9375,22.6875,48.9375,100.6875,-0.5894775390625,-0.4620361328125,-0.13055419921875,0.64959716796875,-13.0,-39.0,10.0,739.0,-632.0,-119.0,334,321.8170169891928,55.36856972820571,
309,14.46744680404663,0.04500460624694824,22.219947765187033,21.35829522549693,102099.5,852.0,-599.0,-39.0,-23.25,29.375,20.375,-6.875,8.875,-9.125,23.4375,49.1875,100.625,-0.590087890625,-0.4608154296875,-0.1346435546875,0.64910888671875,109.0,29.0,78.0,742.0,-629.0,-118.0,362,329.85361359135425,80.00940712454606,
310,14.515451431274414,0.0480046272277832,20.831325181528314,21.35655246188805,102099.5,800.0,-649.0,-62.0,-27.0,29.375,22.0,-1.625,-3.8125,2.875,23.625,49.25,100.8125,-0.5906982421875,-0.46099853515625,-0.13580322265625,0.64813232421875,57.0,-21.0,58.0,743.0,-628.0,-120.0,400,343.8828908730834,122.45721312314235,
311,14.55945611000061,0.04400467872619629,22.724856286808727,21.36068804015145,102099.5,834.0,-611.0,-58.0,-27.0,29.375,22.0,2.25,-1.75,3.25,23.5,49.125,100.9375,-0.59136962890625,-0.46099853515625,-0.13482666015625,0.647705078125,92.0,17.0,63.0,742.0,-629.0,-122.0,390,353.10631269846675,139.88595758940426,
312,14.60546064376831,0.046004533767700195,21.736988033603343,21.361873316410637,102098.75,772.0,-619.0,-96.0,-24.0,28.6875,20.375,3.6875,-11.125,-0.3125,23.1875,49.1875,101.0,-0.590087890625,-0.46282958984375,-0.13311767578125,0.64801025390625,30.0,10.0,26.0,742.0,-629.0,-122.0,400,362.4850501587734,152.68186686052198,
313,14.653465509414673,0.048004865646362305,20.83122172170432,21.360134897707393,102098.75,726.0,-652.0,-153.0,-28.375,27.875,20.375,2.9375,-2.8125,6.1875,22.5,48.8125,101.1875,-0.59063720703125,-0.46380615234375,-0.12896728515625,0.64764404296875,-11.0,-19.0,-28.0,738.0,-632.0,-125.0,423,374.58804012701876,172.56950699323409,
314,14.70447039604187,0.051004886627197266,19.605964567849295,21.354050267905066,102098.75,779.0,-629.0,-137.0,-26.5625,29.375,20.75,2.4375,2.0,-0.0625,22.3125,48.8125,101.0,-0.58966064453125,-0.4639892578125,-0.128173828125,0.64849853515625,40.0,4.0,-13.0,738.0,-633.0,-123.0,418,383.27043210161503,172.10093947820997,
315,14.75047516822815,0.0460047721862793,21.736875382207526,21.355244248571438,102098.75,745.0,-662.0,-157.0,-23.5625,29.375,20.75,4.125,-1.6875,3.125,22.0625,48.75,100.8125,-0.5888671875,-0.46417236328125,-0.1265869140625,0.64947509765625,8.0,-27.0,-35.0,737.0,-634.0,-121.0,395,385.61634568129205,147.87931781034152,
316,14.79647946357727,0.046004295349121094,21.737100686166794,21.356431492900693,102098.75,799.0,-632.0,-127.0,-23.5625,30.5625,20.75,2.75,-5.9375,-1.5,21.875,48.75,100.8125,-0.5880126953125,-0.4649658203125,-0.12591552734375,0.64971923828125,62.0,2.0,-6.0,737.0,-634.0,-121.0,428,394.0930765450337,155.15536470321115,
317,14.844484329223633,0.048004865646362305,20.83122172170432,21.354733042220747,102098.75,771.0,-664.0,-136.0,-23.5625,30.1875,21.5625,1.9375,-5.3125,1.1875,21.4375,48.625,101.0625,-0.58782958984375,-0.4669189453125,-0.123046875,0.6490478515625,34.0,-28.0,-11.0,736.0,-635.0,-124.0,418,398.874461236027,144.04470868953786,
318,14.892489194869995,0.048004865646362305,20.83122172170432,21.353045541207525,102098.75,733.0,-705.0,-153.0,-23.25,29.75,21.1875,5.6875,-6.0625,-3.1875,21.0625,48.625,101.1875,-0.586669921875,-0.46905517578125,-0.120849609375,0.64898681640625,-2.0,-69.0,-27.0,736.0,-635.0,-125.0,447,408.4995689888216,155.33631769038212,
319,14.938493728637695,0.046004533767700195,21.736988033603343,21.35422792918299,102102.5,775.0,-677.0,-112.0,-22.1875,29.0625,21.1875,0.875,-0.5,-1.8125,21.0625,48.75,101.1875,-0.585693359375,-0.47015380859375,-0.12091064453125,0.64910888671875,38.0,-42.0,13.0,737.0,-634.0,-125.0,428,412.3996551910573,141.22427957390966,
320,14.983498334884644,0.04500460624694824,22.219947765187033,21.356828215142166,102102.5,740.0,-643.0,-139.0,-23.5625,29.0625,20.75,2.125,-1.6875,-6.3125,21.125,48.875,101.25,-0.584716796875,-0.471435546875,-0.12115478515625,0.64892578125,1.0,-11.0,-13.0,739.0,-632.0,-125.0,437,417.3197241528459,134.8441587255397,
321,15.032503366470337,0.04900503158569336,20.4060678596102,21.353728795164173,102102.5,747.0,-617.0,-123.0,-23.5625,29.0625,20.75,-1.8125,-6.75,2.1875,21.0625,48.9375,101.375,-0.58416748046875,-0.4727783203125,-0.120849609375,0.64849853515625,7.0,13.0,3.0,739.0,-630.0,-127.0,409,415.6557793222767,101.08441275498338,
322,15.082508325576782,0.05000495910644531,19.998016554144257,21.349234029856646,102102.5,754.0,-637.0,-139.0,-23.25,28.6875,21.1875,4.125,0.75,-5.5625,21.25,49.0,101.375,-0.58453369140625,-0.47235107421875,-0.121826171875,0.6483154296875,14.0,-7.0,-12.0,740.0,-630.0,-127.0,456,423.7246234578214,113.13970592307317,
323,15.131513118743896,0.04900479316711426,20.406167139402843,21.346179821229473,102102.5,797.0,-632.0,-84.0,-22.875,29.75,21.5,1.625,2.375,-5.8125,21.5625,49.3125,101.1875,-0.5828857421875,-0.472900390625,-0.12396240234375,0.64898681640625,53.0,-5.0,40.0,743.0,-627.0,-124.0,451,429.1796987662571,112.77520043885227,
324,15.181518077850342,0.05000495910644531,19.998016554144257,21.341739234412415,102102.5,730.0,-616.0,-148.0,-22.5625,29.75,21.1875,5.5625,-4.0625,-0.0625,21.4375,49.3125,101.25,-0.5821533203125,-0.47430419921875,-0.12298583984375,0.64886474609375,-13.0,9.0,-23.0,744.0,-626.0,-125.0,418,426.9437590130057,81.27728831116373,
325,15.229522943496704,0.048004865646362305,20.83122172170432,21.34013003596946,102102.5,764.0,-656.0,-136.0,-23.25,30.1875,21.1875,3.375,-3.5625,1.9375,21.0625,49.1875,101.1875,-0.58160400390625,-0.4747314453125,-0.12109375,0.6494140625,22.0,-28.0,-11.0,742.0,-628.0,-124.0,404,422.3550072104046,45.90396940376017,
326,15.275527477264404,0.046004533767700195,21.736988033603343,21.341325233135663,102102.5,758.0,-687.0,-128.0,-22.5625,29.75,19.6875,-1.3125,-7.9375,-0.75,20.875,49.1875,101.375,-0.5810546875,-0.47589111328125,-0.119873046875,0.64886474609375,24.0,-70.0,-5.0,742.0,-628.0,-125.0,428,423.48400576832375,41.63138115169692,
327,15.322532176971436,0.04700469970703125,21.274468430449602,21.34112013753545,102105.75,702.0,-613.0,-154.0,-22.5625,30.875,21.1875,-0.8125,-3.5,1.0,20.75,49.125,101.6875,-0.5819091796875,-0.47735595703125,-0.11859130859375,0.64764404296875,-39.0,14.0,-24.0,741.0,-628.0,-130.0,414,421.587204614659,25.23441766886136,
328,15.374537467956543,0.05200529098510742,19.22881270458359,21.333975131519523,102105.75,784.0,-647.0,-119.0,-23.25,29.0625,20.75,1.875,-0.1875,-3.625,21.125,49.3125,101.625,-0.58148193359375,-0.47698974609375,-0.1209716796875,0.6478271484375,40.0,-22.0,8.0,744.0,-625.0,-128.0,494,436.06976369172725,75.88401733029148,
329,15.422542095184326,0.0480046272277832,20.831325181528314,21.332410569508507,102105.75,769.0,-611.0,-120.0,-23.5625,29.75,21.1875,0.625,-3.8125,-1.5625,21.25,49.375,101.6875,-0.58184814453125,-0.47711181640625,-0.12158203125,0.6473388671875,4.0,23.0,-17.0,744.0,-624.0,-129.0,451,439.0558109533818,73.14787816722085,
330,15.468546867370605,0.0460047721862793,21.736875382207526,21.333613482214215,102105.75,740.0,-643.0,-154.0,-22.875,30.1875,21.1875,3.0625,-0.875,-0.125,21.0625,49.375,101.75,-0.58135986328125,-0.47802734375,-0.12054443359375,0.64727783203125,30.0,-57.0,-11.0,744.0,-625.0,-130.0,475,446.2446487627055,89.77087685461078,
331,15.516551733016968,0.048004865646362305,20.83122172170432,21.332059190424385,102105.75,734.0,-664.0,-158.0,-23.25,29.375,21.1875,1.6875,-3.125,-2.1875,21.125,49.25,101.875,-0.5823974609375,-0.47772216796875,-0.12060546875,0.64654541015625,-4.0,-70.0,-27.0,743.0,-625.0,-132.0,465,449.9957190101644,87.44457668738966,
332,15.565556526184082,0.04900479316711426,20.406167139402843,21.32914421925846,102105.75,777.0,-609.0,-123.0,-22.5625,28.6875,20.75,-5.0625,-3.25,-1.3125,21.4375,49.4375,102.125,-0.58319091796875,-0.478271484375,-0.12237548828125,0.6451416015625,23.0,25.0,7.0,745.0,-623.0,-135.0,451,450.19657520813155,70.77540237925221,
333,15.614561319351196,0.04900479316711426,20.406167139402843,21.32624754480368,102105.75,721.0,-661.0,-151.0,-22.875,29.375,20.0,-2.875,-4.875,-0.9375,21.4375,49.4375,102.5,-0.5836181640625,-0.47955322265625,-0.1219482421875,0.64385986328125,-23.0,-38.0,-12.0,745.0,-622.0,-138.0,465,453.15726016650524,68.70356832493967,
334,15.66456651687622,0.050005197525024414,19.9979212060819,21.322007196315653,102105.75,733.0,-599.0,-138.0,-21.75,29.375,21.5625,-4.0,-1.8125,-2.75,21.6875,49.5625,102.8125,-0.5841064453125,-0.4803466796875,-0.12310791015625,0.642578125,-12.0,20.0,-7.0,746.0,-620.0,-140.0,447,451.9258081332042,50.037558513747086,
335,15.712571144104004,0.0480046272277832,20.831325181528314,21.32050807774421,102102.5,769.0,-624.0,-137.0,-21.75,29.375,21.5625,-0.4375,-4.25,0.25,21.6875,49.5625,102.875,-0.583984375,-0.4808349609375,-0.12310791015625,0.642333984375,22.0,-5.0,4.0,746.0,-619.0,-141.0,447,450.94064650656344,35.925602370814204,
336,15.759575843811035,0.04700469970703125,21.274468430449602,21.320370759340648,102102.5,738.0,-616.0,-143.0,-22.5625,29.0625,21.5625,-0.0625,-0.3125,0.4375,21.625,49.4375,102.9375,-0.5849609375,-0.48016357421875,-0.1226806640625,0.64202880859375,-7.0,4.0,-1.0,745.0,-621.0,-142.0,437,448.1525172052508,16.877288136493803,
337,15.806580543518066,0.04700469970703125,21.274468430449602,21.32023425763622,102102.5,776.0,-648.0,-150.0,-22.1875,30.1875,22.25,-0.9375,0.75,1.8125,21.625,49.5,102.75,-0.58447265625,-0.47998046875,-0.1229248046875,0.642578125,30.0,-27.0,-9.0,745.0,-620.0,-141.0,437,445.92201376420064,4.011275501068994,
338,15.850585222244263,0.04400467872619629,22.724856286808727,21.324133794483522,102102.5,789.0,-651.0,-152.0,-25.875,30.875,22.0,-0.5,-0.25,-0.1875,21.875,49.4375,102.75,-0.5855712890625,-0.47857666015625,-0.124267578125,0.64239501953125,33.0,-30.0,-5.0,745.0,-621.0,-141.0,437,444.1376110113605,-4.9010388223604675,
339,15.899590015411377,0.04900479316711426,20.406167139402843,21.32130449095916,102102.5,800.0,-615.0,-137.0,-25.875,28.6875,22.25,-0.75,-0.5625,-1.0,22.0,49.5,102.8125,-0.58551025390625,-0.47869873046875,-0.1248779296875,0.64215087890625,31.0,13.0,-2.0,746.0,-620.0,-141.0,437,442.71008880908846,-9.746882388842671,
340,15.94759488105774,0.048004865646362305,20.83122172170432,21.319829261768227,102102.5,754.0,-625.0,-137.0,-22.5625,29.375,20.75,-0.8125,-0.9375,0.4375,21.875,49.5,102.875,-0.58587646484375,-0.4788818359375,-0.12432861328125,0.641845703125,32.0,-13.0,13.0,745.0,-620.0,-142.0,484,450.9680710472708,26.607265884420453,
341,15.99459958076477,0.04700469970703125,21.274468430449602,21.31969595600813,102102.5,734.0,-631.0,-161.0,-22.875,30.5625,21.1875,-1.8125,-2.0625,0.9375,21.8125,49.375,103.0625,-0.5863037109375,-0.47930908203125,-0.12359619140625,0.64129638671875,-10.0,-9.0,-17.0,744.0,-621.0,-144.0,437,448.1744568378167,9.399281246358946,
342,16.041604042053223,0.04700446128845215,21.27457633996277,21.319563748328637,102102.5,770.0,-606.0,-137.0,-22.1875,29.75,21.5625,-0.5,1.375,-3.9375,22.0,49.5625,103.0,-0.5858154296875,-0.4796142578125,-0.1248779296875,0.6412353515625,23.0,13.0,8.0,746.0,-619.0,-143.0,489,456.3395654702534,42.26127038205975,
343,16.092609405517578,0.05100536346435547,19.605781276293403,21.314131932040656,102098.25,776.0,-603.0,-143.0,-25.875,28.25,22.25,-0.875,-2.6875,1.875,22.0,49.5625,103.125,-0.58599853515625,-0.47998046875,-0.12457275390625,0.640869140625,30.0,15.0,1.0,746.0,-619.0,-144.0,447,454.47165237620277,26.48463719263167,
344,16.14061403274536,0.0480046272277832,20.831325181528314,21.3126959917453,102098.25,764.0,-675.0,-155.0,-22.875,29.75,21.5625,1.75,-2.375,-1.75,21.8125,49.5,103.1875,-0.58575439453125,-0.4808349609375,-0.1236572265625,0.640625,31.0,-51.0,-12.0,746.0,-619.0,-145.0,494,462.3773219009623,54.12482428369806,
345,16.190618991851807,0.05000495910644531,19.998016554144257,21.30863558543542,102098.25,754.0,-645.0,-150.0,-26.5625,29.75,21.5625,0.8125,-1.625,-1.625,21.75,49.5,103.3125,-0.5858154296875,-0.48138427734375,-0.123291015625,0.64019775390625,8.0,-38.0,-13.0,746.0,-619.0,-146.0,503,470.5018575207699,75.79477899088786,
346,16.23862385749817,0.048004865646362305,20.83122172170432,21.307224247345,102098.25,749.0,-657.0,-155.0,-22.875,30.5625,21.1875,-0.875,1.875,-0.1875,21.75,49.5,103.4375,-0.5860595703125,-0.48162841796875,-0.12322998046875,0.63983154296875,23.0,-16.0,-2.0,746.0,-619.0,-147.0,465,469.40148601661593,56.051406636855084,
347,16.28662872314453,0.048004865646362305,20.83122172170432,21.305821229097386,102098.25,750.0,-610.0,-148.0,-22.1875,30.5625,21.1875,-1.3125,-0.6875,-2.125,21.875,49.5625,103.5,-0.58642578125,-0.4818115234375,-0.1239013671875,0.63922119140625,7.0,0.0,12.0,746.0,-618.0,-149.0,484,472.3211888132928,57.005320573295236,
348,16.336633682250977,0.05000495910644531,19.998016554144257,21.301818157193942,102098.25,768.0,-624.0,-145.0,-23.25,29.375,22.6875,-1.1875,-2.4375,1.3125,21.9375,49.5625,103.5625,-0.58660888671875,-0.4820556640625,-0.12371826171875,0.638916015625,44.0,-7.0,6.0,746.0,-618.0,-149.0,517,481.25695105063426,81.34376068788654,
349,16.38563847541809,0.04900479316711426,20.406167139402843,21.299139519254833,102098.25,788.0,-636.0,-152.0,-22.1875,29.0625,22.0,2.75,-5.0,-0.9375,21.75,49.5,103.6875,-0.58636474609375,-0.48272705078125,-0.12286376953125,0.63873291015625,42.0,-7.0,14.0,746.0,-618.0,-150.0,484,481.80556084050744,67.3140131636022,
350,16.43064308166504,0.04500460624694824,22.219947765187033,21.301661673277117,102098.25,728.0,-657.0,-161.0,-22.875,29.75,21.5625,-1.6875,-9.25,9.625,21.3125,49.25,103.9375,-0.5875244140625,-0.483154296875,-0.12030029296875,0.63787841796875,6.0,-8.0,-7.0,743.0,-621.0,-154.0,489,483.244448672406,60.245613023831645,
351,16.479648113250732,0.04900503158569336,20.4060678596102,21.29899847301792,102105.0,790.0,-634.0,-161.0,-21.75,29.75,22.0,1.375,-0.0625,-4.0,21.1875,49.1875,104.0,-0.58746337890625,-0.48382568359375,-0.11932373046875,0.63763427734375,25.0,-48.0,-3.0,742.0,-621.0,-155.0,475,481.5955589379248,41.46701925609771,
352,16.529653072357178,0.05000495910644531,19.998016554144257,21.295062785598063,102105.0,782.0,-632.0,-155.0,-22.1875,29.375,21.5625,-2.375,-0.875,-0.5625,21.1875,49.25,104.125,-0.5875244140625,-0.4844970703125,-0.11944580078125,0.63702392578125,13.0,9.0,1.0,742.0,-620.0,-156.0,456,476.4764471503399,12.699198950750493,
353,16.578657865524292,0.04900479316711426,20.406167139402843,21.292435302261215,102105.0,744.0,-648.0,-166.0,-22.1875,31.25,22.25,0.0625,0.25,2.3125,21.0,49.125,104.25,-0.5875244140625,-0.48504638671875,-0.1185302734375,0.63677978515625,-14.0,-6.0,-7.0,742.0,-621.0,-157.0,465,474.1811577202719,0.7917472119461255,
354,16.628662824630737,0.05000495910644531,19.998016554144257,21.288542785030646,102105.0,773.0,-650.0,-167.0,-22.5625,29.375,23.0625,0.375,-0.3125,-1.1875,21.25,49.1875,104.125,-0.588134765625,-0.4837646484375,-0.11968994140625,0.636962890625,30.0,-28.0,-10.0,742.0,-621.0,-156.0,465,472.34492617621754,-6.710799993491394,
355,16.678667783737183,0.05000495910644531,19.998016554144257,21.284673608413062,102105.0,798.0,-654.0,-154.0,-22.1875,30.5625,22.25,1.0625,1.5625,-3.25,21.375,49.25,104.125,-0.58782958984375,-0.48406982421875,-0.1202392578125,0.63690185546875,49.0,-35.0,5.0,742.0,-620.0,-157.0,418,461.47594094097406,-48.84026932702287,
356,16.728672742843628,0.05000495910644531,19.998016554144257,21.280827563100814,102105.0,768.0,-613.0,-160.0,-21.375,30.1875,23.0625,-2.625,-2.0,-0.9375,21.4375,49.3125,104.375,-0.588134765625,-0.48480224609375,-0.1204833984375,0.635986328125,24.0,5.0,-2.0,743.0,-619.0,-158.0,470,463.18075275277926,-32.25364449478209,
357,16.778677701950073,0.05000495910644531,19.998016554144257,21.277004442281424,102105.0,736.0,-644.0,-163.0,-21.75,30.875,22.25,0.9375,-1.875,-0.3125,21.375,49.3125,104.4375,-0.5877685546875,-0.48583984375,-0.1199951171875,0.63568115234375,-7.0,-25.0,-3.0,744.0,-618.0,-159.0,437,457.94460220222345,-46.745440673826984,
358,16.825682401657104,0.04700469970703125,21.274468430449602,21.276997357607428,102105.0,766.0,-609.0,-148.0,-22.5625,30.5625,23.0625,-1.3125,-2.3125,-0.8125,21.375,49.3125,104.5,-0.58782958984375,-0.4859619140625,-0.12005615234375,0.635498046875,22.0,9.0,11.0,744.0,-618.0,-160.0,465,459.3556817617788,-31.39235903053906,
359,16.873687267303467,0.048004865646362305,20.83122172170432,21.275729146387736,102098.5,770.0,-659.0,-159.0,-22.875,30.1875,22.0,-0.5,3.1875,-4.1875,21.4375,49.4375,104.5,-0.58734130859375,-0.4864501953125,-0.12054443359375,0.635498046875,25.0,-42.0,0.0,745.0,-617.0,-160.0,,459.3556817617788,-31.39235903053906,
360,16.918691873550415,0.04500460624694824,22.219947765187033,21.278240817353062,102098.5,735.0,-604.0,-159.0,-22.875,29.375,21.5625,-0.5,-5.4375,1.75,21.5625,49.4375,104.625,-0.5875244140625,-0.4866943359375,-0.12103271484375,0.63507080078125,-10.0,11.0,1.0,745.0,-616.0,-160.0,442,455.884545409423,-40.539580911468605,
361,16.96969699859619,0.05100512504577637,19.60587292164296,21.27321424948622,102098.5,732.0,-609.0,-175.0,-22.1875,29.75,22.25,-1.25,-3.9375,2.1875,21.3125,49.375,104.8125,-0.58770751953125,-0.48773193359375,-0.1195068359375,0.63433837890625,-12.0,7.0,-12.0,744.0,-616.0,-163.0,461,456.90763632753846,-28.41994662360326,
362,17.01570153236389,0.046004533767700195,21.736988033603343,21.27446813235854,102098.5,717.0,-335.0,-348.0,-21.75,30.1875,22.25,-14.4375,-41.0,-2.125,21.1875,49.375,105.8125,-0.587646484375,-0.489990234375,-0.1192626953125,0.6326904296875,-12.0,213.0,-243.0,745.0,-614.0,-167.0,451,455.7261090620308,-27.872526105225862,
363,17.06770658493042,0.05200505256652832,19.228900859598856,21.268235318768802,102098.5,95.0,14.0,-31.0,-21.75,29.75,22.25,35.625,-78.4375,71.1875,16.3125,46.6875,107.4375,-0.5955810546875,-0.49822998046875,-0.08953857421875,0.62371826171875,-618.0,656.0,170.0,714.0,-641.0,-201.0,470,458.58088724962465,-11.319171535103143,
364,17.112711191177368,0.04500460624694824,22.219947765187033,21.270738221051957,102098.5,96.0,12.0,-26.0,-19.1875,31.5625,23.875,36.5,-78.4375,72.25,7.9375,42.1875,108.1875,-0.60333251953125,-0.50177001953125,-0.04296875,0.61834716796875,-563.0,701.0,200.0,659.0,-689.0,-227.0,470,460.86470979969977,1.0939463254425466,
365,17.157715797424316,0.04500460624694824,22.219947765187033,21.27322799313374,102098.5,97.0,12.0,-32.0,-19.1875,31.5625,23.875,37.625,-78.6875,72.9375,1.0,38.5625,108.4375,-0.60858154296875,-0.5035400390625,-0.00537109375,0.61322021484375,-514.0,738.0,210.0,612.0,-726.0,-243.0,573,483.29176783975987,100.54076869574473,
366,17.201719999313354,0.044004201889038086,22.72510253728998,21.276942074083856,102098.5,103.0,5.0,-34.0,-15.0625,31.25,24.6875,37.875,-78.8125,73.1875,352.125,34.0,108.5,-0.6141357421875,-0.5042724609375,0.04150390625,0.60565185546875,-445.0,775.0,223.0,549.0,-770.0,-257.0,644,515.4334142718079,226.5170571337183,
367,17.246724605560303,0.04500460624694824,22.219947765187033,21.279402807978975,102095.25,130.0,-6.0,-26.0,-15.5,33.5,23.875,38.375,-79.125,71.5,343.375,29.5,108.1875,-0.61907958984375,-0.5028076171875,0.0869140625,0.59698486328125,-352.0,801.0,230.0,496.0,-802.0,-265.0,820,576.3467314174463,451.91179074304614,
368,17.294729471206665,0.048004865646362305,20.83122172170432,21.27815879471657,102095.25,142.0,-14.0,-37.0,-8.375,34.875,24.1875,38.4375,-78.9375,69.3125,336.25,25.9375,107.8125,-0.62066650390625,-0.5023193359375,0.123779296875,0.58917236328125,-286.0,824.0,232.0,429.0,-839.0,-269.0,983,657.6773851339572,700.3728086623955,
369,17.345734357833862,0.051004886627197266,19.605964567849295,21.27324173123569,102095.25,132.0,-35.0,-73.0,-5.0625,33.375,24.875,37.75,-80.3125,66.5,327.8125,21.6875,107.125,-0.6229248046875,-0.49896240234375,0.16680908203125,0.5789794921875,-230.0,834.0,194.0,362.0,-870.0,-268.0,978,721.7419081071657,811.5076004236953,
370,17.39173913002014,0.0460047721862793,21.736875382207526,21.27446813880375,102095.25,112.0,-42.0,-86.0,-6.0625,35.5,23.6875,32.6875,-86.1875,65.6875,318.8125,17.4375,106.5,-0.62164306640625,-0.49908447265625,0.21209716796875,0.56524658203125,-181.0,841.0,188.0,294.0,-896.0,-265.0,1170,811.3935264857327,1038.9552916405835,
371,17.438743829727173,0.04700469970703125,21.274468430449602,21.27446813958986,102095.25,111.0,-59.0,-49.0,-2.6875,34.1875,23.75,29.0,-88.875,66.25,309.6875,13.1875,105.875,-0.61968994140625,-0.49957275390625,0.25714111328125,0.5479736328125,-108.0,864.0,215.0,224.0,-917.0,-262.0,1479,944.9148211885861,1399.2831471021896,
372,17.486748695373535,0.048004865646362305,20.83122172170432,21.273251333360783,102095.25,102.0,-62.0,-68.0,4.5,35.375,26.25,27.375,-89.125,64.0,300.6875,9.0,105.1875,-0.6165771484375,-0.49945068359375,0.30096435546875,0.52899169921875,-59.0,862.0,189.0,154.0,-934.0,-254.0,1587,1073.331856950869,1654.4432666433813,
