Index,Time,Difference,Hz,AveHz,0x6104 Pressure,0x6104 Acceleration-X,0x6104 Acceleration-Y,0x6104 Acceleration-Z,0x6104 Magnetic-X,0x6104 Magnetic-Y,0x6104 Magnetic-Z,0x6104 Angular-Vel-X,0x6104 Angular-Vel-Y,0x6104 Angular-Vel-Z,0x6104 Heading,0x6104 Roll,0x6104 Pitch,0x6104 Quaternion-X,0x6104 Quaternion-Y,0x6104 Quaternion-Z,0x6104 Quaternion-W,0x6104 Linear-Acceleration-X,0x6104 Linear-Acceleration-Y,0x6104 Linear-Acceleration-Z,0x6104 Gravity-X,0x6104 Gravity-Y,0x6104 Gravity-Z,0x6104 Range,0x6104 Smoothed Range,0x6104 Velocity,
0,0.0009999275207519531,0.0009999275207519531,1000.072484501669,0.0,101932.75,-566.0,967.0,-70.0,9.5625,-46.0625,4.5,16.0625,-29.4375,4.875,128.4375,-29.0,-95.3125,-0.6014404296875,0.4229736328125,0.61041259765625,-0.29449462890625,-70.0,72.0,16.0,-475.0,853.0,-79.0,1484,1517.6,,
1,0.04800009727478027,0.04700016975402832,21.27651889840869,20.833291113462177,101932.75,-446.0,684.0,-48.0,10.25,-45.75,4.5,8.0625,-24.9375,-21.0,130.625,-30.0,-95.0625,-0.5997314453125,0.42303466796875,0.6171875,-0.28363037109375,48.0,-166.0,28.0,-490.0,845.0,-75.0,1516,1517.28,-1.3616972094978852,
2,0.09800004959106445,0.04999995231628418,20.000019073504518,20.408152938142575,101932.75,-451.0,753.0,-63.0,11.375,-46.5,5.6875,7.8125,-15.875,-2.4375,131.875,-30.375,-95.0,-0.5970458984375,0.42559814453125,0.62103271484375,-0.27691650390625,40.0,-71.0,0.0,-496.0,842.0,-73.0,1535,1520.824,13.086655751702082,
3,0.14800000190734863,0.04999995231628418,20.000019073504518,20.270270009037354,101932.75,-470.0,829.0,-149.0,10.5625,-45.375,5.6875,15.625,-6.5625,4.0,132.5,-30.25,-95.4375,-0.59600830078125,0.43096923828125,0.62017822265625,-0.2728271484375,4.0,9.0,-85.0,-494.0,843.0,-80.0,1554,1527.4592,37.01014991266487,
4,0.1960000991821289,0.04800009727478027,20.833291113462177,20.408152938142575,101929.25,-503.0,854.0,-200.0,11.0,-45.75,5.6875,20.1875,-7.9375,1.625,132.9375,-30.125,-96.0,-0.5960693359375,0.4373779296875,0.617919921875,-0.26751708984375,-5.0,2.0,-101.0,-492.0,842.0,-91.0,1526,1527.1673600000001,28.3921223944219,
5,0.24499988555908203,0.048999786376953125,20.40825223822499,20.40817279808175,101929.25,-485.0,817.0,-170.0,11.75,-45.375,5.25,18.5,-25.25,-0.4375,134.125,-30.25,-96.4375,-0.59344482421875,0.4434814453125,0.619384765625,-0.25970458984375,7.0,-21.0,-69.0,-495.0,841.0,-95.0,1568,1535.3338880000001,56.04661058244282,
6,0.29200005531311035,0.04700016975402832,21.27651889840869,20.54794131311457,101929.25,-492.0,834.0,-204.0,11.375,-45.375,6.0,24.3125,-34.875,1.25,135.5,-30.375,-96.8125,-0.5906982421875,0.45159912109375,0.6199951171875,-0.25042724609375,4.0,-4.0,-100.0,-496.0,839.0,-103.0,1559,1540.0671104,64.97858763474824,
7,0.3380000591278076,0.046000003814697266,21.739128631995772,20.710055548697692,101929.25,-502.0,836.0,-220.0,11.75,-45.75,6.75,26.625,-36.5,0.25,137.75,-30.5,-97.375,-0.58636474609375,0.46014404296875,0.62188720703125,-0.240234375,2.0,-21.0,-102.0,-499.0,836.0,-112.0,1596,1551.2536883200003,100.62016137874429,
8,0.3840000629425049,0.046000003814697266,21.739128631995772,20.833329918484452,101929.25,-479.0,788.0,-198.0,11.0,-45.75,7.5625,27.4375,-32.3125,1.5,139.875,-30.6875,-98.125,-0.58233642578125,0.4708251953125,0.62261962890625,-0.22711181640625,27.0,-43.0,-72.0,-501.0,834.0,-120.0,1624,1565.8029506560003,143.75378618758685,
9,0.43400001525878906,0.04999995231628418,20.000019073504518,20.7373264598468,101929.25,-464.0,783.0,-204.0,12.5,-44.5625,7.1875,29.0625,-31.1875,5.6875,141.625,-30.6875,-98.875,-0.578369140625,0.481689453125,0.621826171875,-0.21630859375,36.0,-49.0,-73.0,-501.0,832.0,-130.0,1685,1589.6423605248003,210.36075936548775,
10,0.4849998950958252,0.05099987983703613,19.607889336119566,20.61856116076937,101929.25,-443.0,770.0,-208.0,12.0625,-45.375,9.1875,31.5,-37.625,8.5,143.5,-30.5,-99.875,-0.57281494140625,0.495849609375,0.6199951171875,-0.20404052734375,54.0,-61.0,-63.0,-498.0,832.0,-145.0,1681,1607.9138884198403,239.94182688594333,
11,0.5350000858306885,0.05000019073486328,19.999923706345726,20.560744364966645,101929.25,-457.0,807.0,-238.0,11.75,-45.0,10.25,35.9375,-48.1875,16.8125,145.6875,-30.0625,-100.75,-0.56353759765625,0.5133056640625,0.61859130859375,-0.190673828125,33.0,-25.0,-79.0,-491.0,833.0,-158.0,1928,1671.9311107358722,448.02137395131666,
12,0.5829999446868896,0.04799985885620117,20.833394593842822,20.58319234737631,101932.75,-481.0,847.0,-246.0,11.75,-44.25,10.6875,38.0625,-52.625,17.9375,148.1875,-29.6875,-101.0625,-0.55029296875,0.52996826171875,0.62054443359375,-0.1767578125,4.0,11.0,-82.0,-486.0,835.0,-164.0,1802,1697.944888588698,466.80815893795113,
13,0.6319999694824219,0.04900002479553223,20.408152938142575,20.569621246416176,101932.75,-508.0,877.0,-244.0,11.75,-44.5625,12.5625,37.5625,-56.5,17.6875,151.0,-29.375,-101.4375,-0.53570556640625,0.547607421875,0.62237548828125,-0.160888671875,-27.0,40.0,-74.0,-481.0,837.0,-170.0,1741,1706.5559108709585,408.5935390883864,
14,0.6820001602172852,0.05000019073486328,19.999923706345726,20.52785441507756,101932.75,-530.0,905.0,-208.0,12.0625,-43.5625,11.75,33.25,-60.625,14.375,153.8125,-29.125,-101.5,-0.51995849609375,0.5628662109375,0.6258544921875,-0.14520263671875,-52.0,66.0,-37.0,-477.0,839.0,-171.0,1741,1713.444728696767,354.42999745932593,
15,0.7319998741149902,0.04999971389770508,20.00011444157281,20.49180680274768,101932.75,-509.0,852.0,-184.0,11.375,-43.875,12.5625,29.9375,-60.8125,7.75,156.9375,-29.25,-101.3125,-0.50518798828125,0.5750732421875,0.63055419921875,-0.12841796875,-29.0,14.0,-15.0,-479.0,838.0,-168.0,1723,1715.3557829574138,291.18825875085895,
16,0.7769999504089355,0.04500007629394531,22.222184546263723,20.592021906280934,101932.75,-508.0,840.0,-159.0,11.75,-43.1875,13.6875,29.0625,-58.625,7.9375,144.125,-29.4375,-101.1875,-0.49346923828125,0.583984375,0.63421630859375,-0.1148681640625,-14.0,-9.0,16.0,-482.0,837.0,-165.0,1756,1723.4846263659313,269.0787386750381,
17,0.8249998092651367,0.04799985885620117,20.833394593842822,20.60606537005462,101932.75,-514.0,834.0,-119.0,12.0625,-43.5625,14.0625,25.3125,-59.125,4.0,162.5,-29.6875,-100.875,-0.47894287109375,0.59381103515625,0.6390380859375,-0.09808349609375,-28.0,-1.0,41.0,-486.0,836.0,-160.0,1610,1700.787701092745,120.69219088337987,
18,0.875,0.05000019073486328,19.999923706345726,20.571428571428573,101932.75,-514.0,793.0,-126.0,12.0625,-42.75,14.5,22.1875,-59.25,1.1875,165.6875,-30.125,-100.375,-0.46478271484375,0.60162353515625,0.64459228515625,-0.08074951171875,-22.0,-40.0,26.0,-492.0,834.0,-152.0,1713,1703.230160874196,106.32355456367111,
19,0.9230000972747803,0.04800009727478027,20.833291113462177,20.58504658460901,101926.5,-510.0,753.0,-123.0,13.25,-43.1875,14.0625,20.6875,-57.1875,1.4375,168.6875,-30.5625,-99.75,-0.4512939453125,0.60772705078125,0.6502685546875,-0.06402587890625,-11.0,-78.0,19.0,-499.0,831.0,-143.0,1666,1695.7841286993569,54.033772463211335,
20,0.9740002155303955,0.051000118255615234,19.607797671918096,20.533876359677112,101926.5,-536.0,762.0,-164.0,14.375,-42.75,14.875,20.3125,-53.5,2.75,171.625,-30.9375,-99.1875,-0.4375,0.6143798828125,0.6549072265625,-0.04766845703125,-31.0,-67.0,-29.0,-504.0,830.0,-135.0,1699,1696.4273029594856,45.74926412264697,
21,1.0199999809265137,0.045999765396118164,21.739241306747797,20.588235679107285,101926.5,-551.0,768.0,-155.0,13.5625,-43.1875,14.5,16.8125,-48.625,3.5625,174.0625,-31.25,-98.6875,-0.42596435546875,0.61920166015625,0.65875244140625,-0.0340576171875,-42.0,-59.0,-28.0,-509.0,828.0,-127.0,1666,1690.3418423675887,10.14075204412742,
22,1.067000150680542,0.04700016975402832,21.27651889840869,20.618553789301913,101926.5,-572.0,778.0,-144.0,14.875,-42.0625,15.25,13.25,-42.3125,1.625,176.625,-31.8125,-98.375,-0.41668701171875,0.623046875,0.66162109375,-0.0191650390625,-55.0,-45.0,-22.0,-517.0,824.0,-121.0,1737,1699.673473894071,47.821528540539745,
23,1.1159999370574951,0.048999786376953125,20.40825223822499,20.609320158783365,101926.5,-574.0,778.0,-105.0,15.0625,-42.0625,15.6875,9.9375,-37.625,-0.8125,178.1875,-32.125,-97.875,-0.40997314453125,0.62469482421875,0.66455078125,-0.0103759765625,-59.0,-38.0,5.0,-521.0,822.0,-114.0,1741,1707.938779115257,71.99330958840747,
24,1.1630001068115234,0.04700016975402832,21.27651889840869,20.636283573350916,101926.5,-582.0,789.0,-90.0,15.5,-42.375,14.0,5.0625,-34.3125,-2.375,179.75,-32.5625,-97.125,-0.40386962890625,0.6241455078125,0.6688232421875,-0.0010986328125,-54.0,-29.0,12.0,-528.0,819.0,-103.0,1751,1716.5510232922056,94.24236286843785,
25,1.2140002250671387,0.051000118255615234,19.607797671918096,20.593076907063512,101926.5,-595.0,872.0,-47.0,15.5,-42.375,14.0,2.25,-33.0625,0.75,181.0625,-32.875,-96.25,-0.39678955078125,0.62335205078125,0.67376708984375,0.00653076171875,-67.0,112.0,54.0,-532.0,818.0,-90.0,1802,1733.6408186337646,142.41254015710578,
26,1.2599999904632568,0.045999765396118164,21.739241306747797,20.634920791103127,101926.5,-553.0,922.0,-16.0,16.0,-41.25,14.0,-1.75,-23.625,-8.6875,182.1875,-33.125,-95.5625,-0.39141845703125,0.6224365234375,0.67767333984375,0.01312255859375,-17.0,104.0,62.0,-537.0,816.0,-77.0,1793,1745.512654907012,165.54697482534934,
27,1.309000015258789,0.04900002479553223,20.408152938142575,20.626432150699483,101926.75,-511.0,831.0,-35.0,17.375,-42.75,13.1875,6.0,-12.6875,-4.8125,183.0,-33.625,-95.1875,-0.39129638671875,0.620361328125,0.67950439453125,0.01788330078125,26.0,14.0,38.0,-543.0,812.0,-74.0,1817,1759.8101239256098,190.79456673225968,
28,1.3569998741149902,0.04799985885620117,20.833394593842822,20.633752835283843,101926.75,-530.0,923.0,0.0,16.6875,-43.1875,13.0,-2.0625,-16.75,14.8125,182.8125,-33.375,-94.8125,-0.38848876953125,0.62005615234375,0.681396484375,0.0169677734375,9.0,108.0,69.0,-539.0,815.0,-69.0,1835,1774.8480991404879,215.29406769460445,
29,1.4060001373291016,0.04900026321411133,20.40805363902648,20.625887032336745,101926.75,-521.0,1044.0,5.0,17.375,-43.0625,13.5625,-13.6875,-18.9375,5.0625,182.3125,-32.875,-93.6875,-0.38226318359375,0.61749267578125,0.68731689453125,0.01409912109375,10.0,222.0,58.0,-532.0,821.0,-53.0,1793,1778.4784793123904,187.05305281133252,
30,1.4630000591278076,0.056999921798706055,17.54388371849838,20.505809150742625,101926.75,-396.0,820.0,99.0,16.0,-43.0625,12.875,-8.5625,-8.125,-11.5625,182.25,-33.1875,-92.8125,-0.38360595703125,0.611083984375,0.6922607421875,0.0137939453125,141.0,1.0,139.0,-537.0,819.0,-40.0,1835,1789.7827834499124,189.3067217105111,
31,1.511000156402588,0.04800009727478027,20.833291113462177,20.51621230391218,101926.75,-374.0,744.0,95.0,17.375,-43.0625,12.5,-4.4375,-5.8125,-6.625,182.4375,-33.6875,-92.375,-0.38641357421875,0.60662841796875,0.694580078125,0.01507568359375,169.0,-70.0,129.0,-544.0,814.0,-33.0,1868,1805.4262267599302,216.62625906731753,
32,1.559999942779541,0.048999786376953125,20.40825223822499,20.512821265226314,101926.75,-381.0,791.0,104.0,18.5625,-42.25,12.5,-3.0625,-11.5625,0.6875,182.6875,-33.8125,-91.875,-0.38525390625,0.60430908203125,0.69720458984375,0.0164794921875,165.0,-22.0,131.0,-546.0,813.0,-26.0,1877,1819.7409814079442,231.72883197084894,
33,1.6080000400543213,0.04800009727478027,20.833291113462177,20.522387548501055,101926.75,-428.0,840.0,59.0,18.1875,-43.0625,10.875,-0.1875,-19.75,2.6875,182.75,-33.6875,-91.25,-0.38177490234375,0.60296630859375,0.7003173828125,0.01690673828125,115.0,25.0,77.0,-544.0,815.0,-18.0,1858,1827.3927851263556,217.2655164584267,
34,1.6559998989105225,0.04799985885620117,20.833394593842822,20.5314022195101,101926.75,-463.0,814.0,84.0,18.5625,-43.75,11.25,2.3125,-23.1875,-0.25,183.3125,-33.6875,-90.625,-0.37713623046875,0.60205078125,0.7034912109375,0.0203857421875,80.0,-1.0,93.0,-544.0,815.0,-9.0,1882,1838.3142281010846,219.31855937207757,
35,1.7000000476837158,0.04400014877319336,22.72719588187483,20.588234716633217,101921.75,-492.0,814.0,80.0,18.1875,-44.1875,11.25,2.25,-24.5625,1.75,183.375,-33.125,-89.125,-0.36669921875,0.599365234375,0.71124267578125,0.02105712890625,48.0,-6.0,71.0,-536.0,820.0,12.0,1868,1844.251382480868,202.4418216117155,
36,1.746999979019165,0.04699993133544922,21.276626828723902,20.606754683655936,101921.75,-484.0,809.0,73.0,18.875,-43.5,10.5625,5.0625,-20.375,1.25,183.9375,-33.0,-88.5,-0.3626708984375,0.59930419921875,0.7132568359375,0.024658203125,50.0,-12.0,55.0,-535.0,821.0,18.0,1849,1845.2011059846943,165.99483980564875,
37,1.7969999313354492,0.04999995231628418,20.000019073504518,20.589872795656298,101921.75,-487.0,813.0,95.0,19.6875,-44.875,9.375,8.1875,-16.5625,3.875,184.0,-32.625,-87.9375,-0.35528564453125,0.59918212890625,0.717041015625,0.02520751953125,42.0,-11.0,66.0,-529.0,825.0,28.0,1858,1847.7608847877555,143.03499682155407,
38,1.8450000286102295,0.04800009727478027,20.833291113462177,20.59620564267633,101921.75,-521.0,843.0,108.0,18.5625,-44.5,9.75,9.625,-13.0625,5.25,184.0625,-32.1875,-87.3125,-0.34893798828125,0.59906005859375,0.72021484375,0.02557373046875,1.0,14.0,70.0,-522.0,828.0,38.0,1835,1845.2087078302045,103.79394835129742,
39,1.8910000324249268,0.046000003814697266,21.739128631995772,20.624008107492358,101921.75,-517.0,797.0,78.0,18.5625,-44.5,10.1875,14.3125,-10.5625,1.875,184.25,-32.0625,-87.5,-0.345703125,0.6021728515625,0.7191162109375,0.02789306640625,0.0,-37.0,42.0,-520.0,830.0,35.0,1812,1838.5669662641637,54.1580238321113,
40,1.939000129699707,0.04800009727478027,20.833291113462177,20.629188924394143,101921.75,-521.0,781.0,46.0,19.25,-44.1875,11.25,16.125,-13.3125,3.125,184.8125,-31.9375,-87.75,-0.3428955078125,0.60498046875,0.71795654296875,0.030517578125,-2.0,-50.0,15.0,-518.0,831.0,31.0,1840,1838.853573011331,44.52061142545279,
41,1.9839999675750732,0.04499983787536621,22.222302284058216,20.665322918382852,101921.75,-533.0,781.0,27.0,18.875,-44.5,11.25,18.3125,-16.375,5.5,185.625,-31.75,-88.125,-0.33685302734375,0.611083984375,0.71539306640625,0.03643798828125,-17.0,-52.0,1.0,-516.0,833.0,25.0,1784,1827.882858409065,-13.1424180923754,
42,2.0329999923706055,0.04900002479553223,20.408152938142575,20.659124524159672,101921.75,-545.0,827.0,62.0,18.5625,-44.1875,11.6875,23.75,-18.25,4.0,186.5,-31.5625,-88.5625,-0.332275390625,0.61578369140625,0.7132568359375,0.0408935546875,-31.0,-7.0,41.0,-514.0,834.0,20.0,1835,1829.306286727252,-4.704025911091619,
43,2.0799999237060547,0.04699993133544922,21.276626828723902,20.673077681360894,101926.0,-539.0,858.0,8.0,18.5625,-44.5,12.5,30.125,-19.8125,-1.375,187.8125,-31.5625,-89.3125,-0.32647705078125,0.623291015625,0.70892333984375,0.04864501953125,-26.0,22.0,-1.0,-513.0,835.0,9.0,1826,1828.6450293818018,-6.577085884252449,
44,2.128000020980835,0.04800009727478027,20.833291113462177,20.676691525463227,101926.0,-463.0,883.0,-27.0,19.6875,-43.75,13.5625,34.5625,-21.8125,3.4375,189.5625,-31.625,-90.3125,-0.320068359375,0.632568359375,0.70281982421875,0.0589599609375,51.0,48.0,-22.0,-514.0,834.0,-5.0,1849,1832.7160235054414,11.700772432393538,
45,2.1780002117156982,0.05000019073486328,19.999923706345726,20.66115501639538,101926.0,-481.0,948.0,-20.0,18.875,-43.5,15.5625,30.875,-26.8125,4.25,191.0625,-31.1875,-91.1875,-0.30938720703125,0.64300537109375,0.69732666015625,0.067626953125,27.0,110.0,-2.0,-508.0,838.0,-18.0,1844,1834.9728188043532,18.387764705730014,
46,2.2249999046325684,0.04699969291687012,21.276734760134126,20.67415818950174,101926.0,-462.0,936.0,-79.0,20.0625,-43.875,17.0625,30.75,-27.375,3.375,192.8125,-31.0625,-91.875,-0.29937744140625,0.6514892578125,0.69268798828125,0.0780029296875,44.0,97.0,-52.0,-506.0,839.0,-27.0,1802,1828.3782550434828,-13.351945035182462,
47,2.2750000953674316,0.05000019073486328,19.999923706345726,20.659339793306298,101926.0,-455.0,1009.0,-94.0,19.5625,-43.1875,17.0625,30.8125,-29.125,-5.1875,194.8125,-31.0625,-92.5625,-0.28961181640625,0.6600341796875,0.6873779296875,0.08935546875,50.0,170.0,-56.0,-506.0,839.0,-38.0,1807,1824.1026040347865,-27.784094821923144,
48,2.3249998092651367,0.04999971389770508,20.00011444157281,20.6451629839795,101926.0,-364.0,845.0,-112.0,20.6875,-41.6875,17.5,21.875,-28.5,-12.75,197.375,-31.6875,-93.0,-0.28277587890625,0.6651611328125,0.68310546875,0.104736328125,150.0,12.0,-68.0,-515.0,833.0,-43.0,1788,1816.8820832278293,-51.10952435091889,
49,2.379999876022339,0.05500006675720215,18.18179611334839,20.58823636658882,101926.0,-350.0,815.0,-55.0,20.6875,-42.75,18.5625,16.3125,-20.8125,-6.5625,199.375,-32.1875,-93.125,-0.27752685546875,0.66802978515625,0.68060302734375,0.1163330078125,172.0,-12.0,-10.0,-522.0,828.0,-45.0,1779,1809.3056665822635,-68.43819202462643,
50,2.427000045776367,0.04700016975402832,21.27651889840869,20.601565330422407,101926.0,-389.0,850.0,-44.0,22.5625,-42.375,19.0,11.75,-8.3125,0.5,200.4375,-32.3125,-93.3125,-0.27337646484375,0.67083740234375,0.67840576171875,0.12255859375,135.0,23.0,3.0,-524.0,826.0,-48.0,1746,1796.6445332658109,-108.6275220762563,
51,2.4769999980926514,0.04999995231628418,20.000019073504518,20.589422704590717,101923.75,-431.0,883.0,-59.0,23.5625,-41.25,20.0625,5.3125,5.875,1.375,200.875,-32.25,-93.75,-0.271240234375,0.674072265625,0.6756591796875,0.12457275390625,93.0,56.0,-5.0,-524.0,827.0,-54.0,1676,1772.515626612649,-183.41773631821485,
52,2.5249998569488525,0.04799985885620117,20.833394593842822,20.59406057267485,101923.75,-429.0,853.0,-61.0,23.0,-40.875,19.375,-2.4375,21.125,-0.6875,200.125,-32.0625,-94.25,-0.27386474609375,0.67559814453125,0.6739501953125,0.119873046875,91.0,24.0,0.0,-520.0,828.0,-61.0,1638,1745.6125012901193,-258.8308741849447,
53,2.574000120162964,0.04900026321411133,20.40805363902648,20.59051962928599,101923.75,-404.0,814.0,-70.0,23.25,-41.375,20.0625,-9.625,30.0,0.0625,198.9375,-32.0,-94.75,-0.28125,0.67535400390625,0.67242431640625,0.1124267578125,115.0,-14.0,0.0,-519.0,828.0,-69.0,1601,1716.6900010320956,-325.1150866760571,
54,2.619999885559082,0.045999765396118164,21.739241306747797,20.610687923170246,101923.75,-415.0,835.0,-83.0,22.1875,-40.6875,20.1875,-15.25,31.375,2.75,196.9375,-31.4375,-95.0625,-0.287841796875,0.674560546875,0.67236328125,0.100341796875,97.0,2.0,-9.0,-515.0,831.0,-73.0,1582,1689.7520008256765,-377.2144067025587,
55,2.6710000038146973,0.051000118255615234,19.607797671918096,20.591538720123367,101923.75,-449.0,876.0,-101.0,21.75,-42.1875,20.5625,-20.75,33.6875,2.25,194.625,-30.9375,-95.125,-0.2955322265625,0.671875,0.67364501953125,0.08660888671875,54.0,38.0,-25.0,-504.0,837.0,-75.0,1559,1663.6016006605412,-404.32187645758046,
56,2.7209999561309814,0.04999995231628418,20.000019073504518,20.58066920354787,101923.75,-481.0,918.0,-137.0,21.0625,-43.6875,20.875,-31.4375,34.5,-1.625,192.375,-30.8125,-94.875,-0.30621337890625,0.66546630859375,0.67669677734375,0.0736083984375,20.0,79.0,-65.0,-502.0,839.0,-71.0,1516,1634.0812805284331,-441.5388943056885,
57,2.7720000743865967,0.051000118255615234,19.607797671918096,20.5627700109688,101923.75,-440.0,858.0,-123.0,21.5,-42.5,20.5625,-33.8125,37.6875,-7.125,190.3125,-30.8125,-94.375,-0.3167724609375,0.6575927734375,0.68072509765625,0.061767578125,62.0,19.0,-58.0,-502.0,839.0,-64.0,1526,1612.4650244227466,-438.0005506734838,
58,2.822000026702881,0.04999995231628418,20.000019073504518,20.5527992385475,101920.75,-423.0,821.0,-141.0,20.6875,-43.6875,19.6875,-29.75,37.3125,-0.8125,188.25,-30.875,-93.9375,-0.32861328125,0.64935302734375,0.68408203125,0.0494384765625,80.0,-17.0,-83.0,-503.0,839.0,-58.0,1652,1620.3720195381975,-318.7724299141622,
59,2.868000030517578,0.046000003814697266,21.739128631995772,20.571826838283705,101920.75,-453.0,843.0,-138.0,20.25,-44.375,20.5625,-21.5,33.8125,-2.0,186.375,-30.8125,-93.75,-0.3380126953125,0.64361572265625,0.68560791015625,0.038330078125,40.0,-5.0,-98.0,-502.0,840.0,-55.0,1460,1588.297615630558,-394.47186239988196,
60,2.9200000762939453,0.05200004577636719,19.230752301654256,20.54794466860145,101920.75,-493.0,873.0,-179.0,19.5625,-44.375,20.5625,-12.125,21.5625,1.625,185.4375,-30.75,-93.875,-0.34259033203125,0.64166259765625,0.68548583984375,0.03277587890625,8.0,32.0,-122.0,-501.0,840.0,-56.0,1325,1535.6380925044466,-518.1139390322023,
61,2.9670000076293945,0.04699993133544922,21.276626828723902,20.55948764514444,101920.75,-482.0,871.0,-124.0,19.5625,-44.375,20.5625,-13.875,9.0625,-0.8125,184.6875,-30.6875,-93.6875,-0.34613037109375,0.6380615234375,0.687255859375,0.0277099609375,21.0,23.0,-56.0,-501.0,841.0,-52.0,1315,1491.5104740035574,-602.2685255625042,
62,3.013000011444092,0.046000003814697266,21.739128631995772,20.577497432628356,101920.75,-465.0,825.0,-83.0,18.75,-46.0625,19.75,-8.5,2.0,-3.375,184.375,-30.8125,-93.1875,-0.3475341796875,0.635009765625,0.68939208984375,0.0263671875,36.0,-15.0,-36.0,-502.0,840.0,-47.0,1264,1446.0083792028458,-679.6499988295905,
63,3.059000015258789,0.046000003814697266,21.739128631995772,20.594965572326174,101920.75,-461.0,815.0,-86.0,18.75,-44.5625,19.0,0.3125,0.25,-1.5,184.5625,-30.9375,-93.125,-0.3475341796875,0.63482666015625,0.68951416015625,0.0274658203125,43.0,-24.0,-40.0,-504.0,839.0,-46.0,1250,1406.8067033622767,-714.162053801259,
64,3.1060001850128174,0.04700016975402832,21.27651889840869,20.60527887564691,101920.75,-469.0,842.0,-90.0,19.5625,-45.375,18.5625,1.125,-3.25,1.0,184.6875,-30.8125,-93.3125,-0.34564208984375,0.63702392578125,0.68841552734375,0.028564453125,31.0,6.0,-30.0,-502.0,840.0,-49.0,1254,1376.2453626898214,-701.3774315166477,
65,3.1540000438690186,0.04799985885620117,20.833394593842822,20.608750505996937,101920.75,-468.0,841.0,-84.0,19.1875,-44.5625,19.375,2.8125,-6.375,2.0,185.125,-30.6875,-93.3125,-0.34210205078125,0.63885498046875,0.6883544921875,0.0311279296875,31.0,0.0,-28.0,-500.0,841.0,-49.0,1207,1342.3962901518573,-702.1401621771208,
66,3.2049999237060547,0.05099987983703613,19.607889336119566,20.59282420315376,101919.5,-470.0,844.0,-68.0,18.75,-44.5625,18.5625,6.125,-11.25,2.9375,185.5625,-30.4375,-93.375,-0.3375244140625,0.64166259765625,0.68792724609375,0.0335693359375,25.0,0.0,-16.0,-497.0,843.0,-50.0,1165,1306.9170321214858,-700.8468027791279,
67,3.25600004196167,0.051000118255615234,19.607797671918096,20.577395312204587,101919.5,-470.0,830.0,-83.0,18.5,-44.25,18.1875,11.9375,-15.5,4.1875,186.25,-30.3125,-93.5,-0.33209228515625,0.6453857421875,0.6868896484375,0.037841796875,22.0,-15.0,-28.0,-495.0,844.0,-52.0,1151,1275.7336256971887,-682.9650270010642,
68,3.302999973297119,0.04699993133544922,21.276626828723902,20.58734500446304,101919.5,-496.0,876.0,-97.0,18.0625,-43.875,18.5625,12.9375,-19.25,3.3125,187.25,-30.125,-93.6875,-0.32513427734375,0.64984130859375,0.68560791015625,0.04345703125,-6.0,32.0,-40.0,-492.0,846.0,-54.0,1114,1243.386900557751,-684.017861585475,
69,3.3500001430511475,0.04700016975402832,21.27651889840869,20.597014045842837,101919.5,-479.0,855.0,-91.0,18.5,-44.25,19.0,16.3125,-21.75,1.4375,188.5,-30.125,-93.875,-0.318115234375,0.65435791015625,0.68408203125,0.05108642578125,13.0,12.0,-34.0,-492.0,846.0,-57.0,1119,1218.509520446201,-653.0750988856385,
70,3.4020001888275146,0.05200004577636719,19.230752301654256,20.57613054516767,101919.5,-477.0,863.0,-56.0,18.75,-44.25,18.1875,18.5625,-25.9375,1.0,190.0,-30.0625,-94.125,-0.3099365234375,0.65960693359375,0.68212890625,0.059814453125,22.0,9.0,13.0,-492.0,846.0,-61.0,1081,1191.0076163569609,-628.2365401813163,
71,3.447999954223633,0.045999765396118164,21.739241306747797,20.59164760516555,101919.5,-450.0,799.0,-27.0,20.0,-43.1875,17.875,14.0,-28.875,1.125,191.5,-30.125,-94.0625,-0.3016357421875,0.6630859375,0.681640625,0.06878662109375,44.0,-46.0,37.0,-492.0,845.0,-60.0,1072,1167.2060930855687,-606.0746437180467,
72,3.494000196456909,0.04600024223327637,21.739015958411727,20.606753277521737,101919.5,-482.0,854.0,-36.0,20.6875,-42.75,18.1875,8.5625,-27.8125,7.875,192.9375,-29.875,-93.6875,-0.289794921875,0.66656494140625,0.68243408203125,0.07745361328125,8.0,14.0,24.0,-489.0,848.0,-55.0,1011,1135.964874468455,-620.69038498997,
73,3.5429999828338623,0.048999786376953125,20.40825223822499,20.60400800273532,101919.5,-457.0,825.0,34.0,20.25,-42.75,18.1875,-3.5625,-27.4375,0.8125,193.9375,-29.875,-93.125,-0.280517578125,0.66607666015625,0.68585205078125,0.08526611328125,39.0,-53.0,103.0,-488.0,849.0,-43.0,964,1101.571899574764,-636.932409362653,
74,3.5920000076293945,0.04900002479553223,20.408152938142575,20.60133625913816,101919.0,-444.0,776.0,109.0,20.25,-43.1875,18.5625,-8.375,-25.0625,5.1875,194.875,-29.8125,-92.0,-0.2755126953125,0.66424560546875,0.6890869140625,0.0894775390625,57.0,-88.0,131.0,-488.0,849.0,-33.0,1044,1090.0575196598113,-556.543372748569,
75,3.638000011444092,0.046000003814697266,21.739128631995772,20.615722859832815,101919.0,-523.0,932.0,72.0,21.0625,-42.375,19.0,-3.0,-23.1875,16.0,195.375,-29.1875,-91.0625,-0.25946044921875,0.663330078125,0.695556640625,0.094482421875,-51.0,85.0,72.0,-476.0,856.0,-14.0,1114,1094.8460157278491,-424.4151518034792,
76,3.690999984741211,0.05299997329711914,18.867934034494237,20.59062593177676,101919.0,-526.0,861.0,0.0,20.6875,-43.1875,17.0625,11.0625,-19.6875,7.6875,196.0,-28.75,-90.75,-0.250244140625,0.66595458984375,0.69573974609375,0.09906005859375,-53.0,-7.0,14.0,-470.0,858.0,-11.0,1053,1086.4768125822793,-371.114036017162,
77,3.7380001544952393,0.04700016975402832,21.27651889840869,20.599250084942195,101919.0,-521.0,826.0,0.0,21.5,-42.375,18.1875,17.125,-19.75,11.625,196.9375,-28.3125,-90.9375,-0.2423095703125,0.6697998046875,0.6942138671875,0.10357666015625,-55.0,-36.0,14.0,-465.0,862.0,-14.0,1011,1071.3814500658234,-361.12658198567044,
78,3.7839999198913574,0.045999765396118164,21.739241306747797,20.613108258797073,101919.0,-519.0,758.0,0.0,20.25,-43.875,17.0625,13.8125,-26.875,5.4375,198.0,-28.0,-91.0625,-0.2322998046875,0.67413330078125,0.69244384765625,0.10980224609375,-58.0,-106.0,16.0,-460.0,865.0,-16.0,908,1038.7051600526588,-430.972816309628,
79,3.8289999961853027,0.04500007629394531,22.222184546263723,20.63201882442019,101919.0,-520.0,799.0,20.0,20.6875,-42.75,17.0625,13.1875,-31.375,7.0625,199.5,-27.75,-90.875,-0.22027587890625,0.6771240234375,0.6920166015625,0.118896484375,-63.0,-67.0,34.0,-456.0,867.0,-13.0,857,1002.364128042127,-506.29367703564526,
80,3.882000207901001,0.05300021171569824,18.86784915811587,20.60793295095057,101919.0,-497.0,827.0,34.0,21.5,-42.375,17.0625,17.1875,-31.625,2.375,201.25,-27.5625,-90.875,-0.2073974609375,0.6810302734375,0.690185546875,0.12982177734375,-43.0,-41.0,47.0,-454.0,869.0,-13.0,764,954.6913024337016,-584.9316781327032,
81,3.927000045776367,0.04499983787536621,22.222302284058216,20.626432150699483,101919.0,-465.0,852.0,31.0,21.5,-43.1875,17.0625,22.4375,-28.9375,0.625,203.125,-27.5,-91.0625,-0.19635009765625,0.685546875,0.686767578125,0.14056396484375,-12.0,-17.0,48.0,-453.0,869.0,-16.0,740,911.7530419469613,-658.7827433237578,
82,3.9769999980926514,0.04999995231628418,20.000019073504518,20.61855671091948,101916.25,-471.0,897.0,27.0,21.75,-42.375,17.875,27.75,-30.9375,-0.3125,205.125,-27.5625,-91.5625,-0.18511962890625,0.6915283203125,0.681396484375,0.1522216796875,-17.0,28.0,52.0,-453.0,868.0,-24.0,703,870.0024335575691,-694.0287874826583,
83,4.023999929428101,0.04699993133544922,21.276626828723902,20.626242906469468,101916.25,-457.0,896.0,-4.0,23.0,-42.0625,18.5625,32.8125,-34.3125,-4.875,207.25,-27.6875,-92.125,-0.1749267578125,0.69708251953125,0.6756591796875,0.16412353515625,-1.0,28.0,27.0,-456.0,867.0,-32.0,639,823.8019468460554,-751.8211329993856,
84,4.072000026702881,0.04800009727478027,20.833291113462177,20.628683558240354,101916.25,-406.0,891.0,-33.0,23.5625,-41.25,19.375,38.375,-42.4375,-1.625,210.375,-28.0,-92.875,-0.16107177734375,0.70452880859375,0.6669921875,0.18115234375,54.0,27.0,10.0,-461.0,864.0,-43.0,583,775.6415574768445,-802.1247887728008,
85,4.119999885559082,0.04799985885620117,20.833394593842822,20.631068534232625,101916.25,-470.0,971.0,-197.0,24.75,-41.25,19.6875,43.3125,-53.75,8.5,213.625,-27.9375,-93.625,-0.14080810546875,0.712890625,0.6575927734375,0.1988525390625,-11.0,106.0,-142.0,-459.0,864.0,-54.0,512,722.9132459814756,-861.4017749482564,
86,4.167999982833862,0.04800009727478027,20.833291113462177,20.63339739783967,101916.25,-402.0,894.0,-122.0,25.5,-39.5,19.375,43.3125,-61.0,-7.375,217.6875,-28.125,-94.3125,-0.11846923828125,0.7205810546875,0.64642333984375,0.22100830078125,60.0,32.0,-57.0,-462.0,862.0,-65.0,456,669.5305967851806,-911.5486741814535,
87,4.2170000076293945,0.04900002479553223,20.408152938142575,20.630780138155,101916.25,-391.0,908.0,-164.0,25.875,-39.5,20.6875,30.5,-61.0625,2.0,221.8125,-28.5625,-94.375,-0.09814453125,0.72393798828125,0.6378173828125,0.2437744140625,77.0,49.0,-98.0,-468.0,858.0,-66.0,494,634.4244774281444,-872.5291499257792,
88,4.26200008392334,0.04500007629394531,22.222184546263723,20.647582887655066,101916.25,-431.0,1002.0,-151.0,25.875,-39.5,20.6875,30.4375,-45.125,2.1875,224.125,-28.5625,-94.4375,-0.0836181640625,0.72601318359375,0.63250732421875,0.25653076171875,37.0,143.0,-85.0,-468.0,858.0,-66.0,428,593.1395819425155,-881.5114332315945,
89,4.311000108718872,0.04900002479553223,20.408152938142575,20.644861460337264,101916.25,-401.0,824.0,-238.0,27.75,-38.375,20.5625,39.9375,-26.6875,-7.125,227.0625,-28.9375,-95.375,-0.07037353515625,0.732177734375,0.62103271484375,0.270751953125,72.0,-29.0,-158.0,-474.0,854.0,-80.0,451,564.7116655540125,-821.2413996591356,
90,4.35699987411499,0.045999765396118164,21.739241306747797,20.656415561242387,101916.5,-413.0,765.0,-276.0,28.0,-38.0,19.875,37.5,-16.5625,0.6875,229.4375,-29.1875,-96.6875,-0.06011962890625,0.74005126953125,0.60845947265625,0.28021240234375,65.0,-84.0,-175.0,-478.0,850.0,-100.0,428,537.36933244321,-775.8734352043514,
91,4.401000022888184,0.04400014877319336,22.72719588187483,20.677118729093003,101916.5,-436.0,816.0,-235.0,28.75,-37.375,21.75,33.75,-11.75,10.9375,230.4375,-28.9375,-97.75,-0.05145263671875,0.74609375,0.6004638671875,0.28314208984375,38.0,-33.0,-119.0,-474.0,850.0,-116.0,395,508.89546595456807,-750.1249764038247,
92,4.450999975204468,0.04999995231628418,20.000019073504518,20.66951258425333,101916.5,-441.0,822.0,-218.0,28.75,-36.5625,21.375,27.5,-9.875,10.5625,231.375,-28.5,-98.875,-0.04119873046875,0.75262451171875,0.5921630859375,0.284912109375,26.0,-28.0,-85.0,-468.0,851.0,-133.0,334,473.91637276365446,-740.0164873214926,
93,4.496000051498413,0.04500007629394531,22.222184546263723,20.685053143850666,101916.5,-469.0,833.0,-233.0,28.375,-37.375,21.75,22.375,-8.875,9.5,232.0,-28.0625,-100.5625,-0.03277587890625,0.76165771484375,0.58154296875,0.28387451171875,-8.0,-16.0,-73.0,-461.0,850.0,-159.0,367,452.53309821092364,-687.049804520036,
94,4.54800009727478,0.05200004577636719,19.230752301654256,20.668425239552217,101916.5,-452.0,845.0,-143.0,29.1875,-36.1875,22.5625,15.375,-12.9375,8.4375,232.875,-27.75,-101.3125,-0.02362060546875,0.7657470703125,0.57537841796875,0.286376953125,4.0,-4.0,27.0,-456.0,850.0,-170.0,381,438.2264785687389,-604.665255338596,
95,4.5959999561309814,0.04799985885620117,20.833394593842822,20.670148152040714,101916.5,-435.0,833.0,-113.0,28.0,-36.5625,22.5,4.9375,-17.9375,2.0625,233.75,-27.625,-101.3125,-0.016357421875,0.76617431640625,0.57293701171875,0.29071044921875,19.0,-18.0,57.0,-455.0,851.0,-171.0,381,426.78118285499113,-531.4210766404219,
96,4.644000053405762,0.04800009727478027,20.833291113462177,20.67183438759796,101916.5,-408.0,786.0,-103.0,28.0,-34.375,21.375,0.8125,-18.9375,1.4375,235.0625,-27.8125,-101.0,-0.00958251953125,0.76483154296875,0.571533203125,0.29827880859375,48.0,-65.0,63.0,-457.0,851.0,-166.0,376,416.6249462839929,-467.45442793249686,
97,4.694000005722046,0.04999995231628418,20.000019073504518,20.66467828754916,101916.5,-452.0,871.0,-108.0,29.1875,-35.5,22.1875,-5.5625,-17.5625,4.75,236.0,-27.75,-100.3125,-0.00225830078125,0.76129150390625,0.57244873046875,0.3045654296875,3.0,27.0,21.0,-457.0,853.0,-156.0,367,406.6999570271944,-413.6635372340571,
98,4.742000102996826,0.04800009727478027,20.833291113462177,20.666385042477422,101917.75,-428.0,858.0,-132.0,28.75,-35.0625,21.375,-7.0625,-13.375,1.0625,236.5625,-27.75,-99.75,0.00225830078125,0.7584228515625,0.57379150390625,0.30908203125,42.0,-20.0,27.0,-457.0,854.0,-147.0,381,401.5599656217555,-352.34741724128605,
99,4.786999940872192,0.04499983787536621,22.222302284058216,20.68101132709899,101917.75,-359.0,782.0,-66.0,28.875,-35.875,20.25,-10.0625,-6.375,-0.125,237.0625,-27.875,-99.125,0.00445556640625,0.755126953125,0.575927734375,0.313232421875,103.0,-79.0,78.0,-458.0,855.0,-137.0,456,412.4479724974044,-233.48661778071403,
100,4.834000110626221,0.04700016975402832,21.27651889840869,20.686801347020552,101917.75,-386.0,848.0,-56.0,28.5,-36.0625,20.25,-13.0,-1.3125,3.1875,236.8125,-27.75,-98.4375,0.00494384765625,0.7518310546875,0.57989501953125,0.31378173828125,71.0,-11.0,66.0,-457.0,858.0,-127.0,456,421.15837799792354,-149.72387277565156,
101,4.882000207901001,0.04800009727478027,20.833291113462177,20.68824164254278,101917.75,-357.0,790.0,14.0,29.25,-36.0625,20.25,-11.125,1.625,1.9375,236.6875,-27.6875,-98.125,0.00506591796875,0.75006103515625,0.58203125,0.3140869140625,98.0,-68.0,137.0,-456.0,859.0,-122.0,494,435.7267023983389,-59.07786956667978,
102,4.928999900817871,0.04699969291687012,21.276734760134126,20.693853124865168,101917.75,-424.0,851.0,28.0,28.875,-35.75,19.5,-16.625,3.75,6.5,236.125,-27.4375,-97.5625,0.00518798828125,0.74749755859375,0.58599853515625,0.312744140625,27.0,-10.0,143.0,-452.0,862.0,-115.0,564,461.38136191867113,61.90718154178795,
103,4.976999998092651,0.04800009727478027,20.833291113462177,20.695197918318858,101917.75,-434.0,925.0,-43.0,29.25,-35.75,18.6875,-20.0,12.375,9.4375,235.125,-27.0,-96.8125,0.0052490234375,0.74371337890625,0.59246826171875,0.3095703125,10.0,58.0,60.0,-445.0,867.0,-104.0,569,482.90508953493696,139.20776188873666,
104,5.020999908447266,0.04399991035461426,22.72731903180185,20.713005755095065,101917.75,-379.0,864.0,2.0,29.25,-35.75,18.6875,-21.6875,22.875,3.6875,233.8125,-26.6875,-96.375,0.00054931640625,0.74163818359375,0.59814453125,0.30364990234375,61.0,-5.0,100.0,-441.0,870.0,-98.0,653,516.9240716279496,265.9982613439999,
105,5.069000005722046,0.04800009727478027,20.833291113462177,20.71414477835327,101917.75,-338.0,913.0,-25.0,28.0625,-36.875,19.5,-21.125,27.1875,16.125,231.5,-26.0625,-95.875,-0.00555419921875,0.739013671875,0.606689453125,0.29290771484375,93.0,37.0,65.0,-431.0,876.0,-90.0,642,541.9392573023597,317.0283381576587,
106,5.119999885559082,0.05099987983703613,19.607889336119566,20.703125462750915,101914.75,-394.0,988.0,-73.0,26.25,-38.25,18.6875,9.125,26.1875,10.5,229.0625,-25.0,-96.375,-0.00775146484375,0.740966796875,0.61004638671875,0.28057861328125,23.0,118.0,25.0,-417.0,882.0,-96.0,675,568.5514058418878,357.98428323801556,
107,5.167999982833862,0.04800009727478027,20.833291113462177,20.70433443409703,101914.75,-385.0,916.0,-116.0,26.25,-38.25,18.6875,14.8125,15.25,2.5625,228.3125,-24.75,-97.25,-0.0098876953125,0.7467041015625,0.60675048828125,0.2724609375,25.0,33.0,-3.0,-410.0,883.0,-113.0,717,598.2411246735103,410.0943376896188,
108,5.214000225067139,0.04600024223327637,21.739015958411727,20.71346285732263,101914.75,-387.0,879.0,-59.0,25.0625,-37.6875,20.6875,10.3125,-0.3125,9.75,228.0625,-24.4375,-98.0,-0.0084228515625,0.7506103515625,0.60333251953125,0.269287109375,18.0,-4.0,64.0,-406.0,883.0,-124.0,712,620.9928997388082,426.9957103970362,
109,5.259999990463257,0.045999765396118164,21.739241306747797,20.72243349764725,101914.75,-385.0,949.0,-89.0,25.875,-38.0,19.875,3.4375,-4.6875,15.8125,227.875,-23.75,-98.1875,-0.0006103515625,0.7518310546875,0.60260009765625,0.267578125,9.0,61.0,38.0,-395.0,888.0,-128.0,693,635.3943197910465,404.2117574527181,
110,5.31000018119812,0.05000019073486328,19.999923706345726,20.715630178223496,101914.75,-359.0,910.0,-131.0,25.0625,-37.6875,21.0,1.0625,4.9375,10.1875,227.4375,-23.3125,-98.25,0.0028076171875,0.75244140625,0.60333251953125,0.26416015625,38.0,1.0,-17.0,-386.0,891.0,-129.0,726,653.5154558328372,395.85367362379964,
111,5.355000019073486,0.04499983787536621,22.222302284058216,20.7282912426964,101914.75,-285.0,897.0,-94.0,25.875,-38.0,21.0,-6.625,14.875,17.5,226.3125,-22.5625,-98.1875,0.0052490234375,0.75238037109375,0.60638427734375,0.25732421875,100.0,4.0,21.0,-373.0,897.0,-129.0,764,675.6123646662697,414.89177642700247,
112,5.403000116348267,0.04800009727478027,20.833291113462177,20.729224058521325,101914.75,-307.0,995.0,-243.0,24.75,-39.0625,21.375,-10.75,20.5625,19.8125,224.6875,-21.6875,-98.125,0.0054931640625,0.7520751953125,0.6104736328125,0.24847412109375,52.0,92.0,-114.0,-359.0,903.0,-128.0,740,688.4898917330158,385.56967518220404,
113,5.448999881744385,0.045999765396118164,21.739241306747797,20.737750495936034,101914.75,-259.0,944.0,-126.0,24.75,-38.25,21.0,-11.8125,20.8125,9.6875,223.0,-20.9375,-97.9375,0.00482177734375,0.75140380859375,0.6138916015625,0.24188232421875,102.0,17.0,0.0,-348.0,907.0,-126.0,740,698.7919133864127,353.24736707987034,
114,5.494000196456909,0.045000314712524414,22.222066809716814,20.74990824964273,101915.0,-236.0,935.0,-178.0,24.75,-39.375,21.375,-11.125,14.5625,11.375,221.75,-20.3125,-97.625,0.0050048828125,0.75,0.61798095703125,0.23583984375,104.0,24.0,-55.0,-338.0,912.0,-123.0,731,705.2335307091303,311.227103765508,
115,5.54200005531311,0.04799985885620117,20.833394593842822,20.75063133385385,101915.0,-262.0,939.0,-218.0,22.5625,-39.0625,21.375,-6.875,18.375,10.75,220.1875,-19.5625,-97.5625,0.00506591796875,0.74981689453125,0.62127685546875,0.22760009765625,65.0,23.0,-96.0,-328.0,915.0,-122.0,745,713.1868245673043,282.12050486603147,
116,5.590000152587891,0.04800009727478027,20.833291113462177,20.751341115133567,101915.0,-321.0,997.0,-204.0,22.875,-39.75,22.5625,-1.375,21.0,16.1875,218.5625,-18.75,-97.6875,0.005126953125,0.7508544921875,0.62335205078125,0.21832275390625,-6.0,77.0,-79.0,-315.0,920.0,-125.0,773,725.1494596538435,275.5406157412227,
117,5.641000032424927,0.05099987983703613,19.607889336119566,20.741003248976156,101915.0,-341.0,975.0,-206.0,22.1875,-39.375,21.75,1.0625,12.75,6.5,217.4375,-18.0625,-97.9375,0.00653076171875,0.7520751953125,0.62371826171875,0.212890625,-41.0,68.0,-72.0,-305.0,922.0,-128.0,773,734.7195677230748,257.96241658421667,
118,5.684000015258789,0.042999982833862305,23.25582323750381,20.760028093460082,101915.0,-307.0,889.0,-139.0,21.375,-40.5625,22.875,1.625,3.5,2.5625,217.3125,-17.9375,-98.0625,0.0072021484375,0.75311279296875,0.623291015625,0.2105712890625,-5.0,-34.0,-8.0,-302.0,923.0,-131.0,815,750.7756541784598,281.04943496587623,
119,5.730999946594238,0.04699993133544922,21.276626828723902,20.764264719757698,101915.0,-296.0,968.0,-77.0,21.375,-40.875,22.875,-2.1875,-0.75,6.5625,217.25,-17.625,-98.0625,0.01068115234375,0.7530517578125,0.623291015625,0.21044921875,1.0,43.0,54.0,-297.0,925.0,-131.0,801,760.820523342768,267.5837345231689,
120,5.7790000438690186,0.04800009727478027,20.833291113462177,20.764838049674154,101915.0,-290.0,1003.0,-138.0,21.5,-41.6875,21.6875,-3.9375,1.75,4.8125,217.3125,-17.4375,-97.9375,0.01373291015625,0.7523193359375,0.62396240234375,0.21099853515625,3.0,77.0,-8.0,-294.0,926.0,-129.0,829,774.4564186742143,270.88310302507955,
121,5.824999809265137,0.045999765396118164,21.739241306747797,20.77253286902081,101915.0,-256.0,879.0,-188.0,20.6875,-40.5625,22.375,-1.5,-4.5,1.0625,217.375,-17.3125,-97.75,0.01641845703125,0.7510986328125,0.62506103515625,0.2117919921875,35.0,-47.0,-62.0,-291.0,927.0,-126.0,834,786.3651349393715,268.48377372843254,
122,5.870000123977661,0.045000314712524414,22.222066809716814,20.783645216915207,101920.75,-232.0,822.0,-238.0,19.875,-39.75,20.875,20.5625,-20.875,0.375,218.5625,-17.375,-98.0,0.0223388671875,0.7525634765625,0.62115478515625,0.21746826171875,61.0,-103.0,-107.0,-293.0,926.0,-131.0,872,803.4921079514972,290.90636668748107,
123,5.921000003814697,0.05099987983703613,19.607889336119566,20.773517973442885,101920.75,-290.0,934.0,-299.0,21.6875,-41.25,22.875,43.9375,-34.75,8.6875,220.75,-17.375,-99.3125,0.03680419921875,0.75897216796875,0.60931396484375,0.22650146484375,2.0,11.0,-148.0,-293.0,923.0,-151.0,886,819.9936863611979,297.4373180157269,
124,5.9679999351501465,0.04699993133544922,21.276626828723902,20.777480118534942,101920.75,-308.0,1047.0,-207.0,22.0625,-39.75,23.1875,43.6875,-48.25,5.3125,223.875,-17.375,-100.8125,0.05670166015625,0.765869140625,0.5941162109375,0.23931884765625,-14.0,128.0,-31.0,-293.0,919.0,-176.0,870,829.9949490889584,280.5084813874986,
125,6.016000032424927,0.04800009727478027,20.833291113462177,20.77792541992641,101920.75,-284.0,1062.0,-142.0,22.0625,-39.75,23.1875,38.0,-51.0,6.75,226.5,-17.5625,-101.75,0.0714111328125,0.76959228515625,0.58294677734375,0.25048828125,11.0,147.0,48.0,-296.0,915.0,-191.0,880,839.9959592711667,266.07757642092804,
126,6.067000150680542,0.051000118255615234,19.607797671918096,20.768089149604922,101920.75,-286.0,999.0,-27.0,22.0625,-39.0625,23.5625,30.5625,-46.75,-2.25,229.9375,-17.9375,-102.6875,0.089599609375,0.77239990234375,0.56988525390625,0.265625,16.0,116.0,177.0,-302.0,910.0,-205.0,872,846.3967674169334,237.96321134853392,
127,6.116999864578247,0.04999971389770508,20.00011444157281,20.761811805068,101920.75,-307.0,963.0,-56.0,23.5,-38.6875,24.0,11.75,-34.0625,-0.75,233.0,-18.5,-103.0,0.10235595703125,0.77215576171875,0.56109619140625,0.28009033203125,4.0,57.0,153.0,-311.0,906.0,-209.0,857,848.5174139335467,198.8532036833049,
128,6.164000034332275,0.04700016975402832,21.27651889840869,20.765736419056623,101920.75,-318.0,959.0,-52.0,25.375,-39.0625,23.1875,8.25,-13.25,-8.3125,234.9375,-18.875,-102.4375,0.110107421875,0.76806640625,0.55975341796875,0.291015625,-1.0,53.0,147.0,-317.0,905.0,-200.0,768,832.4139311468374,90.55735177832021,
129,6.211999893188477,0.04799985885620117,20.833394593842822,20.76625921089436,101920.75,-318.0,878.0,-220.0,25.75,-38.6875,24.375,5.4375,-0.75,-13.875,236.1875,-19.5,-102.5,0.1097412109375,0.76812744140625,0.55645751953125,0.29718017578125,9.0,-24.0,-20.0,-327.0,902.0,-200.0,707,807.3311449174699,-32.06603518322767,
130,6.259999990463257,0.04800009727478027,20.833291113462177,20.76677319457626,101916.0,-320.0,850.0,-254.0,26.1875,-37.5625,24.375,-1.5,5.3125,-9.625,236.6875,-20.0,-102.625,0.10638427734375,0.76922607421875,0.554443359375,0.29925537109375,15.0,-48.0,-52.0,-335.0,898.0,-202.0,703,786.464915933976,-112.59527271724022,
131,6.308000087738037,0.04800009727478027,20.833291113462177,20.76727935604307,101916.0,-307.0,810.0,-267.0,26.5,-37.25,24.0,-13.125,9.625,-11.6875,236.75,-20.4375,-102.4375,0.1009521484375,0.76885986328125,0.55548095703125,0.3001708984375,39.0,-97.0,-49.0,-342.0,897.0,-198.0,665,762.1719327471809,-191.29677632278126,
132,6.355999946594238,0.04799985885620117,20.833394593842822,20.767778651529113,101916.0,-300.0,822.0,-192.0,26.5,-36.875,25.1875,-17.9375,12.0625,-12.5625,236.4375,-20.75,-102.0,0.0941162109375,0.76715087890625,0.55908203125,0.30010986328125,39.0,-66.0,-4.0,-348.0,896.0,-190.0,665,742.7375461977448,-234.01426979295982,
133,6.4040000438690186,0.04800009727478027,20.833291113462177,20.768269689087507,101916.0,-298.0,836.0,-193.0,26.5,-38.25,23.1875,-25.25,13.4375,-22.75,236.25,-21.5,-101.3125,0.08319091796875,0.76458740234375,0.56353759765625,0.30157470703125,65.0,-66.0,-1.0,-360.0,894.0,-179.0,644,722.9900369581958,-269.4925375850296,
134,6.454000234603882,0.05000019073486328,19.999923706345726,20.762317187647938,101916.0,-322.0,872.0,-150.0,26.5,-38.25,24.0,-34.75,12.0,-14.375,235.6875,-22.25,-100.1875,0.07025146484375,0.759521484375,0.5716552734375,0.30230712890625,27.0,4.0,7.0,-371.0,893.0,-160.0,667,711.7920295665566,-260.3858887671995,
135,6.5,0.045999765396118164,21.739241306747797,20.76923076923077,101916.0,-363.0,964.0,-121.0,27.6875,-39.0625,25.1875,-45.875,0.875,-6.9375,235.0,-22.6875,-98.25,0.0601806640625,0.750244140625,0.58392333984375,0.30426025390625,12.0,75.0,28.0,-378.0,895.0,-130.0,606,690.6336236532453,-300.3022493768784,
136,6.546000003814697,0.046000003814697266,21.739128631995772,20.776046428467104,101916.0,-431.0,1027.0,-156.0,28.0,-39.0625,21.25,-27.6875,1.4375,-6.25,234.8125,-22.875,-96.875,0.0565185546875,0.74298095703125,0.592041015625,0.30706787109375,-63.0,133.0,-67.0,-381.0,896.0,-108.0,583,669.1068989225963,-333.83624709053134,
137,6.5920000076293945,0.046000003814697266,21.739128631995772,20.782766966237876,101916.0,-411.0,911.0,-134.0,27.6875,-39.375,20.875,-6.9375,-4.9375,-21.25,235.4375,-23.6875,-96.25,0.0501708984375,0.7401123046875,0.5936279296875,0.31207275390625,-10.0,-11.0,-37.0,-394.0,892.0,-98.0,587,652.6855191380771,-338.46629516252875,
138,6.64300012588501,0.051000118255615234,19.607797671918096,20.773746407481067,101915.5,-413.0,864.0,-138.0,28.75,-39.0625,20.5625,-1.125,-13.125,-14.9375,236.875,-24.625,-95.875,0.04766845703125,0.73785400390625,0.5919189453125,0.32073974609375,-19.0,-6.0,-43.0,-408.0,886.0,-91.0,573,636.7484153104617,-333.27133759566976,
139,6.690999984741211,0.04799985885620117,20.833394593842822,20.774174311312024,101915.5,-419.0,869.0,-77.0,29.5,-39.375,20.5625,4.8125,-15.3125,-14.9375,238.375,-25.375,-95.6875,0.04730224609375,0.73681640625,0.58868408203125,0.3292236328125,5.0,-27.0,9.0,-421.0,881.0,-88.0,554,620.1987322483694,-335.57428560365696,
140,6.740000009536743,0.04900002479553223,20.408152938142575,20.771513323725134,101915.5,-380.0,806.0,-27.0,30.25,-39.0625,19.75,9.75,-13.5,-14.5625,239.4375,-25.875,-95.75,0.04779052734375,0.73681640625,0.58563232421875,0.33441162109375,39.0,-62.0,56.0,-428.0,877.0,-88.0,531,602.3589857986956,-341.27468326745156,
141,6.784999847412109,0.04499983787536621,22.222302284058216,20.781135323647693,101915.5,-382.0,822.0,-32.0,31.0,-39.0625,20.25,9.5,-7.25,-7.5,240.875,-26.5,-96.0,0.04876708984375,0.738037109375,0.5802001953125,0.3409423828125,55.0,-49.0,59.0,-438.0,872.0,-92.0,489,579.6871886389565,-373.7836525752761,
142,6.8420000076293945,0.057000160217285156,17.543810336462045,20.754165425556604,101915.5,-351.0,804.0,-41.0,31.375,-39.0625,20.25,7.25,-2.9375,-7.75,241.3125,-26.625,-95.875,0.05010986328125,0.73724365234375,0.57952880859375,0.3436279296875,88.0,-67.0,48.0,-439.0,871.0,-90.0,461,555.9497509111652,-382.3159431342107,
143,6.890000104904175,0.04800009727478027,20.833291113462177,20.754716665129692,101915.5,-335.0,816.0,-118.0,31.6875,-38.6875,20.6875,14.0,-5.0,1.875,241.875,-26.8125,-96.25,0.05145263671875,0.7388916015625,0.576171875,0.34552001953125,106.0,-53.0,-23.0,-442.0,869.0,-95.0,442,533.1598007289322,-400.8106878289209,
144,6.939000129699707,0.04900002479553223,20.408152938142575,20.75226939161792,101915.5,-469.0,989.0,-225.0,32.0625,-38.25,20.25,30.125,-18.4375,16.9375,242.25,-26.125,-97.0625,0.06280517578125,0.74261474609375,0.5706787109375,0.34490966796875,-37.0,115.0,-116.0,-430.0,873.0,-111.0,447,515.9278405831458,-390.98304587897394,
145,6.98799991607666,0.048999786376953125,20.40825223822499,20.74985714673688,101913.25,-462.0,864.0,-246.0,31.375,-38.6875,21.0,12.25,-40.875,3.875,244.0625,-26.0625,-97.3125,0.075439453125,0.74267578125,0.56390380859375,0.3531494140625,-31.0,-9.0,-133.0,-431.0,873.0,-112.0,447,502.1422724665166,-369.05430697745925,
146,7.036999940872192,0.04900002479553223,20.408152938142575,20.74747779263221,101913.25,-494.0,880.0,-212.0,32.875,-38.6875,21.0,6.25,-37.0,5.0,245.9375,-25.9375,-96.6875,0.08880615234375,0.73797607421875,0.56103515625,0.36431884765625,-65.0,4.0,-109.0,-429.0,875.0,-103.0,451,491.91381797321327,-336.9922183060006,
147,7.083999872207642,0.04699993133544922,21.276626828723902,20.75098851663153,101913.25,-464.0,793.0,-188.0,32.375,-38.6875,20.25,6.0,-22.0625,0.875,247.125,-26.0,-96.375,0.09515380859375,0.73565673828125,0.558837890625,0.37078857421875,-33.0,-82.0,-90.0,-430.0,875.0,-98.0,437,480.9310543785706,-316.3290071550618,
148,7.131999969482422,0.04800009727478027,20.833291113462177,20.751542433158555,101913.25,-453.0,811.0,-172.0,32.75,-39.0625,18.6875,11.1875,-4.8125,2.9375,247.875,-26.0,-96.6875,0.1007080078125,0.73638916015625,0.554931640625,0.37371826171875,-23.0,-63.0,-69.0,-430.0,875.0,-102.0,447,474.1448435028565,-281.3390270702685,
149,7.180999994277954,0.04900002479553223,20.408152938142575,20.749199292400483,101913.25,-468.0,807.0,-176.0,33.1875,-39.0625,19.5,12.25,-3.0625,-0.625,248.625,-26.3125,-97.6875,0.10125732421875,0.741455078125,0.54779052734375,0.37408447265625,-33.0,-63.0,-58.0,-435.0,870.0,-117.0,447,468.71587480228516,-247.23026636374453,
150,7.230000019073486,0.04900002479553223,20.408152938142575,20.74688791207255,101913.25,-496.0,828.0,-152.0,32.5,-39.0625,19.5,6.0625,-8.0625,-4.8125,249.4375,-26.625,-98.125,0.1024169921875,0.74359130859375,0.54296875,0.37646484375,-56.0,-38.0,-27.0,-439.0,867.0,-124.0,418,458.5726998418282,-239.1849062652645,
151,7.278000116348267,0.04800009727478027,20.833291113462177,20.747457761207645,101913.25,-557.0,837.0,-57.0,33.1875,-37.5625,19.375,-7.6875,-6.6875,-5.5625,250.0625,-26.9375,-97.875,0.1026611328125,0.74224853515625,0.542236328125,0.38018798828125,-113.0,-28.0,62.0,-444.0,865.0,-120.0,437,454.25815987346255,-209.32513844853742,
152,7.322999954223633,0.04499983787536621,22.222302284058216,20.756520681436314,101913.25,-532.0,747.0,84.0,33.1875,-37.5625,19.375,-27.125,-5.5,-11.125,250.25,-27.3125,-97.0,0.09893798828125,0.73809814453125,0.54583740234375,0.38409423828125,-82.0,-117.0,191.0,-450.0,864.0,-106.0,404,444.20652789877005,-212.13419159677431,
153,7.368000030517578,0.04500007629394531,22.222184546263723,20.765472226694907,101914.5,-640.0,850.0,82.0,34.6875,-38.25,18.1875,-37.125,-0.75,-2.8125,250.0625,-27.625,-95.3125,0.09375,0.72955322265625,0.55462646484375,0.38909912109375,-185.0,-14.0,162.0,-454.0,865.0,-80.0,423,439.9652223190161,-188.5575683394975,
154,7.416999816894531,0.048999786376953125,20.40825223822499,20.76311228284204,101914.5,-731.0,852.0,115.0,34.6875,-37.5625,17.5625,-22.75,14.0625,-27.375,249.875,-28.25,-94.0625,0.08428955078125,0.7239990234375,0.56109619140625,0.39227294921875,-267.0,-9.0,176.0,-464.0,861.0,-61.0,418,435.57217785521294,-168.7769265738046,
155,7.4670000076293945,0.05000019073486328,19.999923706345726,20.758001853706844,101914.5,-781.0,724.0,163.0,34.0,-37.25,16.375,-8.0625,22.1875,-35.0,250.625,-30.0,-94.0625,0.06640625,0.7257080078125,0.5587158203125,0.39599609375,-290.0,-122.0,224.0,-490.0,846.0,-60.0,381,424.65774228417035,-178.67911700277924,
156,7.51200008392334,0.04500007629394531,22.222184546263723,20.766772930934913,101914.5,-807.0,748.0,162.0,34.0,-36.5,16.0,-22.625,23.125,-21.75,250.5,-30.9375,-94.0,0.05389404296875,0.7261962890625,0.55963134765625,0.3956298828125,-303.0,-90.0,221.0,-504.0,838.0,-59.0,362,412.12619382733635,-198.63897009386574,
157,7.556999921798706,0.04499983787536621,22.222302284058216,20.775440204402052,101914.5,-733.0,824.0,99.0,35.0625,-36.5,16.6875,-17.875,29.625,-44.8125,250.25,-32.3125,-93.6875,0.03485107421875,0.7254638671875,0.5621337890625,0.3956298828125,-208.0,-2.0,152.0,-524.0,826.0,-53.0,320,393.7009550618691,-240.80142117552487,
158,7.603000164031982,0.04600024223327637,21.739015958411727,20.781270102749843,101914.5,-549.0,606.0,40.0,34.0,-34.25,16.6875,-19.4375,31.625,-54.125,251.1875,-35.0,-94.0,0.0068359375,0.7271728515625,0.55804443359375,0.399658203125,13.0,-194.0,96.0,-562.0,801.0,-56.0,329,380.7607640494953,-248.90254072499772,
159,7.647000074386597,0.04399991035461426,22.72731903180185,20.79246743210659,101914.5,-565.0,862.0,106.0,35.0625,-32.6875,15.875,-37.875,26.6875,-21.375,250.75,-36.1875,-93.6875,-0.01104736328125,0.7254638671875,0.56103515625,0.3985595703125,14.0,73.0,158.0,-579.0,789.0,-51.0,376,379.80861123959625,-203.45000871551875,
160,7.694000005722046,0.04699993133544922,21.276626828723902,20.795424991032963,101914.5,-427.0,836.0,83.0,35.5,-31.5,16.25,-6.0625,34.0625,-32.6875,250.25,-37.375,-93.75,-0.02972412109375,0.72479248046875,0.5628662109375,0.3961181640625,168.0,59.0,135.0,-595.0,777.0,-51.0,353,374.44688899167704,-185.5758796580637,
161,7.739000082015991,0.04500007629394531,22.222184546263723,20.80372119056237,101914.0,-280.0,734.0,39.0,35.5,-30.5,16.25,-10.625,45.0,-21.0625,249.8125,-38.375,-94.8125,-0.04547119140625,0.72869873046875,0.56024169921875,0.39129638671875,328.0,-31.0,104.0,-609.0,765.0,-64.0,297,358.9575111933417,-217.3022661147326,
162,7.789000034332275,0.04999995231628418,20.000019073504518,20.79856198304507,101914.0,-372.0,876.0,-19.0,35.1875,-30.75,17.0625,-0.625,45.0625,-5.4375,247.9375,-38.3125,-96.125,-0.05828857421875,0.73388671875,0.5611572265625,0.3782958984375,236.0,112.0,62.0,-608.0,764.0,-82.0,306,348.36600895467336,-216.2078622498726,
163,7.835999965667725,0.04699993133544922,21.276626828723902,20.801429391801992,101914.0,-315.0,775.0,-101.0,33.25,-30.0625,18.1875,-6.6875,35.9375,2.5625,246.4375,-38.375,-97.625,-0.0699462890625,0.73992919921875,0.5595703125,0.36676025390625,245.0,27.0,-78.0,-609.0,761.0,-102.0,297,338.0928071637387,-216.682105968277,
164,7.883000135421753,0.04700016975402832,21.27651889840869,20.80426197927824,101914.0,-457.0,876.0,-169.0,33.0,-30.375,19.875,-26.625,22.3125,-0.8125,244.6875,-38.25,-97.4375,-0.07940673828125,0.7381591796875,0.56585693359375,0.358642578125,149.0,114.0,-14.0,-607.0,763.0,-100.0,334,337.27424573099097,-176.8289123332948,
165,7.930999994277954,0.04799985885620117,20.833394593842822,20.80443829517639,101914.0,-459.0,760.0,-114.0,32.1875,-29.1875,19.875,-17.125,19.5,-6.3125,243.6875,-38.375,-97.3125,-0.087158203125,0.73651123046875,0.56976318359375,0.35400390625,149.0,-2.0,-15.0,-609.0,762.0,-97.0,367,343.2193965847928,-116.69159513520094,
166,7.979000091552734,0.04800009727478027,20.833291113462177,20.80461186806378,101914.0,-466.0,678.0,-176.0,31.5,-30.0,19.0625,-25.8125,10.4375,-1.375,242.625,-38.5,-97.0,-0.09356689453125,0.73431396484375,0.57354736328125,0.35089111328125,143.0,-83.0,-84.0,-610.0,761.0,-91.0,268,328.17551726783427,-156.03597956535862,
167,8.026999950408936,0.04799985885620117,20.833394593842822,20.804783983023718,101914.0,-456.0,690.0,-100.0,31.5,-30.0,19.0625,-24.0,12.6875,-3.0,241.625,-38.5,-96.1875,-0.100830078125,0.72943115234375,0.5809326171875,0.3468017578125,154.0,-71.0,-17.0,-611.0,762.0,-82.0,353,333.14041381426745,-104.14165387839691,
168,8.075000047683716,0.04800009727478027,20.833291113462177,20.8049534375161,101914.0,-541.0,810.0,-131.0,31.5,-30.0,18.0,-17.4375,16.0625,-1.1875,240.5,-38.5,-95.9375,-0.10784912109375,0.72735595703125,0.5853271484375,0.341552734375,69.0,47.0,-51.0,-611.0,762.0,-79.0,376,341.71233105141397,-47.597073662321954,
169,8.123000144958496,0.04800009727478027,20.833291113462177,20.805120889341495,101916.0,-538.0,818.0,-166.0,30.375,-30.0,18.25,-13.6875,18.3125,3.4375,238.9375,-38.3125,-96.125,-0.11505126953125,0.7271728515625,0.589111328125,0.3331298828125,69.0,53.0,-84.0,-608.0,765.0,-82.0,372,347.76986484113115,-12.837985955695189,
170,8.172999858856201,0.04999971389770508,20.00011444157281,20.800196125757825,101916.0,-615.0,982.0,-200.0,31.0625,-30.0,18.75,-7.4375,10.625,-5.375,237.875,-38.0625,-96.125,-0.11932373046875,0.7266845703125,0.59197998046875,0.32745361328125,-10.0,215.0,-117.0,-605.0,767.0,-83.0,348,347.81589187290496,-10.086279583979756,
171,8.218000173568726,0.045000314712524414,22.222066809716814,20.807982038012298,101916.0,-543.0,860.0,-229.0,29.25,-29.1875,18.375,-8.5,2.875,-19.125,238.1875,-38.875,-96.125,-0.12725830078125,0.7249755859375,0.59130859375,0.3294677734375,72.0,101.0,-148.0,-616.0,758.0,-81.0,372,352.65271349832403,13.427810994165357,
172,8.266999959945679,0.048999786376953125,20.40825223822499,20.80561277771316,101916.0,-493.0,833.0,-159.0,29.25,-29.1875,17.6875,-8.3125,-1.8125,-15.5625,238.75,-39.6875,-95.75,-0.13299560546875,0.72174072265625,0.591796875,0.33343505859375,99.0,82.0,-85.0,-626.0,750.0,-75.0,433,368.72217079865925,76.33215637865771,
173,8.315000057220459,0.04800009727478027,20.833291113462177,20.805772556762975,101916.0,-481.0,733.0,-168.0,29.5625,-28.875,17.25,-12.25,0.125,-18.6875,239.3125,-40.5625,-95.25,-0.14013671875,0.71795654296875,0.5924072265625,0.33758544921875,155.0,-5.0,-79.0,-638.0,741.0,-68.0,470,388.9777366389274,145.46374506656753,
174,8.36300015449524,0.04800009727478027,20.833291113462177,20.80593050168394,101916.0,-513.0,727.0,-80.0,31.5,-27.6875,16.875,-11.8125,-1.4375,-10.9375,239.5625,-41.1875,-94.625,-0.1455078125,0.71380615234375,0.59442138671875,0.34051513671875,126.0,-1.0,-16.0,-646.0,735.0,-60.0,428,396.78218931114196,148.88948295355075,
175,8.41599988937378,0.05299973487854004,18.868018911636234,20.793726509069792,101916.0,-530.0,745.0,-30.0,30.6875,-28.0625,17.25,-10.0625,-1.8125,-8.875,239.6875,-41.625,-94.0625,-0.1492919921875,0.71026611328125,0.5965576171875,0.34259033203125,125.0,16.0,32.0,-651.0,730.0,-52.0,470,411.4257514489136,174.3705878326798,
176,8.462000131607056,0.04600024223327637,21.739015958411727,20.7988651929476,101916.0,-524.0,776.0,-38.0,31.0625,-29.5625,16.875,-4.625,-1.125,-4.3125,239.6875,-41.8125,-93.875,-0.1517333984375,0.70867919921875,0.59765625,0.3428955078125,130.0,48.0,11.0,-654.0,728.0,-49.0,414,411.94060115913095,141.7349354794635,
177,8.507999897003174,0.045999765396118164,21.739241306747797,20.803949476109633,101918.25,-527.0,750.0,-61.0,31.0625,-27.6875,16.5,-3.0625,-2.375,-2.9375,238.8125,-41.0625,-93.4375,-0.147216796875,0.70782470703125,0.6016845703125,0.3394775390625,126.0,-1.0,-17.0,-645.0,737.0,-44.0,381,405.75248092730476,86.48294059260327,
178,8.555999994277954,0.04800009727478027,20.833291113462177,20.80411408590955,101918.25,-545.0,784.0,-47.0,30.6875,-28.5,16.0625,2.3125,-2.875,7.75,238.6875,-40.9375,-93.375,-0.1448974609375,0.7081298828125,0.60235595703125,0.33868408203125,77.0,55.0,-3.0,-641.0,740.0,-44.0,372,399.0019847418438,41.05934203567773,
179,8.604000091552734,0.04800009727478027,20.833291113462177,20.80427685905527,101918.25,-563.0,829.0,-74.0,31.5,-27.375,17.25,1.9375,-1.25,6.8125,238.5625,-40.5,-93.375,-0.1412353515625,0.70892333984375,0.602783203125,0.33782958984375,73.0,93.0,-12.0,-636.0,744.0,-44.0,381,395.401587793475,17.8458500786647,
180,8.651999950408936,0.04799985885620117,20.833394593842822,20.804438399412188,101918.25,-596.0,857.0,-47.0,31.5,-27.6875,18.0625,0.1875,1.25,6.0625,238.25,-40.1875,-93.4375,-0.13897705078125,0.7098388671875,0.60321044921875,0.3360595703125,44.0,98.0,21.0,-632.0,748.0,-45.0,404,397.12127023478007,21.442044638093986,
181,8.70300006866455,0.051000118255615234,19.607797671918096,20.797426010795597,101918.25,-564.0,816.0,-34.0,30.6875,-26.5625,17.25,-1.125,5.25,2.625,237.625,-39.5625,-93.25,-0.135009765625,0.7098388671875,0.60552978515625,0.33349609375,39.0,86.0,28.0,-624.0,754.0,-43.0,362,390.0970161878241,-10.392394719297624,
182,8.747999906539917,0.04499983787536621,22.222302284058216,20.804755594926174,101918.25,-553.0,796.0,-34.0,30.6875,-27.6875,16.0625,4.4375,11.6875,7.5625,237.1875,-39.125,-93.625,-0.13348388671875,0.7119140625,0.60540771484375,0.3299560546875,66.0,37.0,14.0,-619.0,758.0,-48.0,376,387.2776129502593,-20.844641976601636,
183,8.792999982833862,0.04500007629394531,22.222184546263723,20.81200959368382,101918.25,-560.0,779.0,-42.0,30.0,-28.5,16.5,6.625,10.875,8.875,236.25,-38.4375,-94.125,-0.1314697265625,0.7149658203125,0.60552978515625,0.3238525390625,49.0,13.0,13.0,-610.0,765.0,-55.0,376,385.02209036020747,-26.700241430161054,
184,8.842000007629395,0.04900002479553223,20.408152938142575,20.809771526943457,101918.25,-623.0,791.0,-53.0,30.0,-27.6875,18.0625,1.875,6.75,11.9375,235.5625,-37.8125,-94.625,-0.1287841796875,0.71795654296875,0.605224609375,0.31884765625,-21.0,20.0,9.0,-601.0,771.0,-62.0,390,386.017672288166,-17.2965954944831,
185,8.891000032424927,0.04900002479553223,20.408152938142575,20.80755812904245,101915.5,-638.0,804.0,-96.0,30.0,-27.375,18.0625,2.0,5.6875,14.3125,235.0625,-37.1875,-94.9375,-0.12457275390625,0.72039794921875,0.60504150390625,0.31536865234375,-44.0,26.0,-28.0,-593.0,777.0,-67.0,418,392.41413783053287,12.27073301484989,
186,8.938000202178955,0.04700016975402832,21.27651889840869,20.810024143281613,101915.5,-662.0,842.0,-61.0,29.25,-29.1875,18.0625,-1.4375,-1.75,9.25,234.375,-36.5625,-95.0,-0.120849609375,0.721435546875,0.60638427734375,0.31182861328125,-77.0,57.0,6.0,-584.0,784.0,-68.0,428,399.53131026442634,40.102317170473476,
187,8.986000061035156,0.04799985885620117,20.833394593842822,20.810148979506934,101915.5,-613.0,770.0,-76.0,28.5,-28.0625,18.0625,-3.9375,-2.0,6.1875,234.3125,-36.3125,-94.6875,-0.117919921875,0.7205810546875,0.60797119140625,0.3118896484375,-32.0,-16.0,-11.0,-581.0,787.0,-64.0,409,401.4250482115411,39.97245171829385,
188,9.036999940872192,0.05099987983703613,19.607889336119566,20.803364084326358,101915.5,-584.0,773.0,-44.0,29.25,-28.875,16.875,-4.3125,-2.5625,4.9375,234.3125,-36.125,-94.4375,-0.11480712890625,0.71990966796875,0.60894775390625,0.31256103515625,-27.0,-11.0,17.0,-578.0,789.0,-61.0,395,400.1400385692329,26.938696002189992,
189,9.08299994468689,0.046000003814697266,21.739128631995772,20.80810317636914,101915.5,-590.0,792.0,-87.0,29.25,-28.5,16.875,2.375,2.6875,7.4375,234.3125,-35.8125,-94.3125,-0.11102294921875,0.7200927734375,0.60943603515625,0.3126220703125,-16.0,0.0,-26.0,-574.0,792.0,-60.0,418,403.7120308553864,37.08135675798946,
190,9.13100004196167,0.04800009727478027,20.833291113462177,20.80823558502373,101915.5,-602.0,833.0,-72.0,28.5,-28.875,17.6875,2.8125,3.4375,1.0,234.1875,-35.625,-94.6875,-0.10986328125,0.7220458984375,0.60797119140625,0.31134033203125,-30.0,40.0,-6.0,-571.0,793.0,-65.0,390,400.9696246843091,18.23841618370995,
191,9.17900013923645,0.04800009727478027,20.833291113462177,20.808366608859014,101915.5,-596.0,797.0,-97.0,28.0625,-28.5,16.5,-1.1875,-1.875,-4.0,234.5625,-35.75,-94.6875,-0.109130859375,0.72222900390625,0.60699462890625,0.31317138671875,-23.0,4.0,-32.0,-573.0,792.0,-65.0,395,399.77569974744733,9.616055791515292,
192,9.230000019073486,0.05099987983703613,19.607889336119566,20.80173343480373,101915.5,-582.0,746.0,-53.0,28.875,-28.875,17.6875,-1.625,-1.0625,-3.625,235.0,-36.0,-94.625,-0.1090087890625,0.7216796875,0.6063232421875,0.315673828125,-6.0,-43.0,10.0,-576.0,790.0,-64.0,367,393.2205597979579,-18.01364710926085,
193,9.278000116348267,0.04800009727478027,20.833291113462177,20.801896699691245,101917.75,-584.0,747.0,-53.0,28.875,-29.1875,16.5,-0.5,-0.25,-0.125,235.25,-36.0625,-94.5,-0.10797119140625,0.72137451171875,0.60595703125,0.3175048828125,-6.0,-42.0,9.0,-577.0,790.0,-62.0,381,390.7764478383663,-24.594696881021804,
194,9.324999809265137,0.04699969291687012,21.276734760134126,20.8042899697698,101917.75,-563.0,762.0,-57.0,29.25,-30.0,17.25,-1.4375,1.8125,-3.1875,235.4375,-36.1875,-94.5625,-0.10858154296875,0.721435546875,0.6053466796875,0.31817626953125,15.0,-26.0,5.0,-579.0,788.0,-63.0,418,396.2211582706931,3.493374438052882,
195,9.374000072479248,0.04900026321411133,20.40805363902648,20.80221874250809,101917.75,-577.0,797.0,-55.0,29.25,-30.0,17.25,0.0,3.875,-0.75,235.375,-36.1875,-94.625,-0.1094970703125,0.7215576171875,0.60528564453125,0.31781005859375,2.0,8.0,8.0,-579.0,788.0,-63.0,437,404.37692661655444,36.08337112440489,
196,9.422000169754028,0.04800009727478027,20.833291113462177,20.802377039769976,101917.75,-555.0,747.0,-58.0,29.5625,-28.875,18.0625,-1.9375,2.75,-1.125,235.5,-36.3125,-94.6875,-0.1097412109375,0.72174072265625,0.604736328125,0.31829833984375,25.0,-39.0,6.0,-580.0,787.0,-64.0,423,408.1015412932436,44.38589326851172,
197,9.468999862670898,0.04699969291687012,21.276734760134126,20.804731529949844,101917.75,-553.0,757.0,-30.0,28.875,-28.875,18.375,-2.5625,-1.625,4.25,235.375,-36.1875,-94.5625,-0.10931396484375,0.7213134765625,0.6055908203125,0.31787109375,26.0,-30.0,32.0,-579.0,788.0,-63.0,447,415.88123303459486,68.61400215407672,
198,9.516999959945679,0.04800009727478027,20.833291113462177,20.80487557353422,101917.75,-594.0,789.0,-74.0,28.0625,-28.5,18.375,-0.3125,-3.9375,2.625,235.3125,-36.0625,-94.375,-0.1075439453125,0.72076416015625,0.6064453125,0.31793212890625,-23.0,-1.0,-16.0,-577.0,790.0,-61.0,456,423.9049864276759,88.32343977539887,
199,9.56499981880188,0.04799985885620117,20.833394593842822,20.805018689997937,101917.75,-589.0,814.0,-47.0,28.875,-30.0,17.6875,-2.5,-4.0625,2.25,235.3125,-35.9375,-94.1875,-0.10589599609375,0.72015380859375,0.60723876953125,0.31854248046875,-13.0,22.0,10.0,-576.0,791.0,-58.0,465,432.1239891421408,104.90469716398145,
200,9.611000061035156,0.04600024223327637,21.739015958411727,20.809488994890188,101917.75,-607.0,821.0,-40.0,28.875,-29.1875,18.0625,-2.375,-0.75,1.875,235.3125,-35.8125,-93.9375,-0.104248046875,0.71917724609375,0.60845947265625,0.31884765625,-33.0,27.0,14.0,-574.0,793.0,-55.0,475,440.6991913137126,121.2070491020666,
201,9.668999910354614,0.05799984931945801,17.241424102536698,20.788085827237147,101920.5,-578.0,800.0,-45.0,28.5,-28.875,17.25,-1.1875,1.9375,0.3125,235.25,-35.8125,-93.875,-0.10418701171875,0.71868896484375,0.60894775390625,0.31903076171875,-4.0,8.0,9.0,-574.0,793.0,-53.0,508,454.15935305097014,143.3801106818121,
202,9.716000080108643,0.04700016975402832,21.27651889840869,20.79044857292151,101920.5,-563.0,807.0,-39.0,28.875,-29.1875,16.5,-1.3125,1.25,0.5625,235.375,-35.8125,-93.875,-0.103515625,0.71881103515625,0.60870361328125,0.31951904296875,3.0,17.0,18.0,-574.0,793.0,-53.0,508,464.92748244077615,160.52575023799318,
203,9.759999990463257,0.04399991035461426,22.72731903180185,20.79918034819226,101920.5,-565.0,789.0,-65.0,28.875,-28.5,17.6875,0.125,1.8125,0.25,235.4375,-35.8125,-93.8125,-0.1026611328125,0.71875,0.60858154296875,0.32012939453125,16.0,2.0,-16.0,-573.0,793.0,-53.0,503,472.54198595262096,163.0320503068891,
204,9.807000160217285,0.04700016975402832,21.27651889840869,20.8014679991073,101920.5,-566.0,789.0,-62.0,28.5,-29.5625,16.875,0.375,2.375,-0.9375,235.4375,-35.8125,-93.875,-0.10321044921875,0.7191162109375,0.60821533203125,0.31976318359375,4.0,-4.0,2.0,-574.0,793.0,-54.0,517,481.43358876209675,168.26211128810235,
205,9.855000019073486,0.04799985885620117,20.833394593842822,20.801623501089853,101920.5,-572.0,790.0,-38.0,29.25,-29.1875,17.25,0.0625,2.0,-0.625,235.5625,-35.8125,-93.9375,-0.1025390625,0.719482421875,0.607666015625,0.32025146484375,1.0,-2.0,4.0,-574.0,793.0,-55.0,498,484.7468710096774,148.4150723234064,
206,9.900000095367432,0.04500007629394531,22.222184546263723,20.80808060763503,101920.5,-586.0,780.0,-49.0,28.875,-29.1875,17.25,-0.0625,1.1875,1.25,235.5625,-35.8125,-94.0,-0.10211181640625,0.7197265625,0.60736083984375,0.32037353515625,-9.0,-13.0,-2.0,-573.0,793.0,-55.0,503,488.39749680774196,134.9570338975134,
207,9.94700002670288,0.04699993133544922,21.276626828723902,20.810294505308654,101920.5,-605.0,818.0,-39.0,28.5,-29.5625,17.25,0.25,1.4375,0.25,235.5,-35.75,-94.0625,-0.10211181640625,0.72003173828125,0.607421875,0.3197021484375,-21.0,21.0,8.0,-573.0,793.0,-56.0,494,489.5179974461936,112.73372190714717,
208,9.998000144958496,0.051000118255615234,19.607797671918096,20.804160530532123,101920.5,-567.0,803.0,-49.0,29.25,-30.0,15.375,-0.125,0.375,-1.5625,235.75,-35.75,-94.0625,-0.10113525390625,0.72027587890625,0.60662841796875,0.3209228515625,8.0,10.0,5.0,-573.0,793.0,-56.0,540,499.6143979569549,129.78061321164947,
209,10.047000169754028,0.04900002479553223,20.408152938142575,20.802229169775835,101925.5,-557.0,768.0,-60.0,29.25,-29.5625,16.5625,-1.0625,-0.25,-2.0625,236.0,-35.875,-94.0625,-0.10052490234375,0.72027587890625,0.60595703125,0.32232666015625,17.0,-24.0,-3.0,-574.0,792.0,-56.0,517,503.09151836556396,118.0168115859656,
210,10.104000091552734,0.056999921798706055,17.54388371849838,20.783847792674376,101925.5,-578.0,790.0,-51.0,28.5,-29.5625,17.25,-0.3125,0.6875,1.8125,235.9375,-35.8125,-94.0625,-0.10040283203125,0.72021484375,0.60626220703125,0.322021484375,0.0,0.0,8.0,-574.0,792.0,-56.0,465,495.47321469245117,67.68252251411249,
211,10.151999950408936,0.04799985885620117,20.833394593842822,20.78408205582198,101925.5,-606.0,823.0,-52.0,28.5,-29.1875,16.875,-0.125,0.375,1.8125,235.875,-35.6875,-94.0625,-0.099609375,0.72039794921875,0.60638427734375,0.32159423828125,-33.0,24.0,-1.0,-572.0,793.0,-56.0,470,490.37857175396095,32.918276680829706,
212,10.199000120162964,0.04700016975402832,21.27651889840869,20.78635135819692,101925.5,-588.0,807.0,-36.0,28.875,-29.1875,17.6875,-0.25,0.875,0.375,235.875,-35.75,-94.0625,-0.0994873046875,0.72039794921875,0.60626220703125,0.32177734375,-22.0,14.0,11.0,-572.0,793.0,-56.0,489,490.1028574031688,25.161373025625405,
213,10.247999906539917,0.048999786376953125,20.40825223822499,20.784543515078568,101925.5,-581.0,796.0,-59.0,28.5,-28.5,16.5625,0.9375,1.0625,-0.4375,236.0625,-35.75,-94.125,-0.0986328125,0.7208251953125,0.60552978515625,0.32257080078125,-9.0,0.0,-14.0,-573.0,793.0,-57.0,503,492.6822859225351,30.65742399123996,
214,10.29800009727478,0.05000019073486328,19.999923706345726,20.78073392683615,101925.5,-588.0,795.0,-52.0,27.75,-29.5625,17.6875,0.1875,0.375,0.625,236.0,-35.75,-94.125,-0.098876953125,0.72088623046875,0.60552978515625,0.32232666015625,-12.0,2.0,0.0,-573.0,793.0,-57.0,508,495.7458287380281,36.78006370918872,
215,10.348000049591064,0.04999995231628418,20.000019073504518,20.776961632165477,101925.5,-582.0,793.0,-63.0,28.875,-30.0,17.25,-0.125,0.4375,-0.9375,236.0625,-35.75,-94.125,-0.09893798828125,0.72088623046875,0.6053466796875,0.32257080078125,-9.0,0.0,-6.0,-573.0,793.0,-57.0,479,492.3966629904225,16.027375200863045,
216,10.39900016784668,0.051000118255615234,19.607797671918096,20.77122766743133,101923.5,-570.0,775.0,-53.0,28.5,-30.0,17.6875,-0.8125,-0.875,-1.625,236.125,-35.8125,-94.125,-0.09942626953125,0.720703125,0.60528564453125,0.32305908203125,3.0,-17.0,4.0,-574.0,792.0,-57.0,494,492.71733039233806,14.079416468038414,
217,10.446000099182129,0.04699993133544922,21.276626828723902,20.773501621638893,101923.5,-577.0,760.0,-51.0,28.875,-29.5625,17.25,0.1875,-0.5,0.0,236.25,-35.9375,-94.0625,-0.09942626953125,0.72039794921875,0.60516357421875,0.3238525390625,-1.0,-31.0,5.0,-575.0,791.0,-56.0,508,495.7738643138705,24.270079501987066,
218,10.493000030517578,0.04699993133544922,21.276626828723902,20.775755204991352,101923.5,-577.0,771.0,-77.0,28.5,-29.1875,17.6875,0.9375,1.6875,1.25,236.25,-35.875,-94.0625,-0.099365234375,0.72039794921875,0.60516357421875,0.3238525390625,5.0,-26.0,-11.0,-575.0,791.0,-56.0,498,496.21909145109646,21.31064993214526,
219,10.539000034332275,0.046000003814697266,21.739128631995772,20.77996008032799,101923.5,-574.0,810.0,-51.0,29.5625,-30.0,18.0625,0.125,2.9375,0.75,236.125,-35.8125,-94.1875,-0.0994873046875,0.72100830078125,0.60491943359375,0.3228759765625,0.0,18.0,6.0,-574.0,792.0,-58.0,503,497.5752731608772,22.944961673172912,
220,10.586000204086304,0.04700016975402832,21.27651889840869,20.78216472309133,101923.5,-575.0,795.0,-32.0,28.0625,-29.5625,16.875,-0.625,0.5625,-1.125,236.125,-35.875,-94.1875,-0.10009765625,0.7210693359375,0.60498046875,0.32257080078125,0.0,3.0,26.0,-574.0,792.0,-58.0,526,503.2602185287018,42.54713884952646,
221,10.631999969482422,0.045999765396118164,21.739241306747797,20.786305552515774,101923.5,-552.0,762.0,-46.0,28.0625,-29.5625,17.6875,0.1875,-1.375,-0.0625,236.1875,-35.9375,-94.1875,-0.10028076171875,0.7208251953125,0.60491943359375,0.3231201171875,23.0,-29.0,12.0,-575.0,791.0,-58.0,489,500.4081748229615,21.63745781232525,
222,10.680000066757202,0.04800009727478027,20.833291113462177,20.786516724002837,101923.5,-572.0,790.0,-54.0,28.0625,-29.5625,17.6875,-0.5625,-1.6875,-0.6875,236.25,-35.9375,-94.125,-0.09991455078125,0.7205810546875,0.60498046875,0.32366943359375,3.0,-1.0,2.0,-576.0,791.0,-57.0,494,499.1265398583692,11.969831386151624,
223,10.727999925613403,0.04799985885620117,20.833394593842822,20.78672646777161,101923.5,-572.0,786.0,-54.0,28.0625,-29.5625,17.6875,-1.0,-1.0,0.875,236.25,-35.9375,-94.0,-0.099853515625,0.72015380859375,0.6053466796875,0.32391357421875,3.0,-5.0,1.0,-576.0,791.0,-56.0,517,502.7012318866954,24.470459024438043,
224,10.778000116348267,0.05000019073486328,19.999923706345726,20.78307641324226,101925.5,-567.0,781.0,-48.0,28.5,-29.5625,18.0625,0.6875,-0.9375,0.5625,236.25,-35.875,-94.0,-0.0994873046875,0.72027587890625,0.6053466796875,0.32379150390625,8.0,-10.0,8.0,-575.0,792.0,-56.0,512,504.5609855093563,27.015353332714234,
225,10.824999809265137,0.04699969291687012,21.276734760134126,20.785219765770535,101925.5,-574.0,788.0,-63.0,29.25,-28.5,16.875,0.1875,0.1875,1.125,236.5,-35.875,-94.0,-0.09771728515625,0.720458984375,0.60479736328125,0.324951171875,0.0,-3.0,-7.0,-575.0,792.0,-56.0,498,503.2487884074851,16.028428728265258,
226,10.872999906539917,0.04800009727478027,20.833291113462177,20.785431982213574,101925.5,-581.0,804.0,-44.0,28.875,-29.1875,16.0625,1.0,1.75,0.3125,236.5625,-35.875,-94.125,-0.096923828125,0.72100830078125,0.6041259765625,0.32525634765625,-6.0,11.0,12.0,-574.0,792.0,-57.0,484,499.3990307259881,-3.2178815163706798,
227,10.924000024795532,0.051000118255615234,19.607797671918096,20.77993404291015,101925.5,-585.0,790.0,-48.0,29.5625,-30.375,16.875,0.9375,0.625,-0.3125,236.625,-35.875,-94.1875,-0.09686279296875,0.72149658203125,0.603515625,0.3253173828125,-10.0,-1.0,10.0,-574.0,792.0,-58.0,522,503.91922458079046,15.151904095465888,
228,10.970999956130981,0.04699993133544922,21.276626828723902,20.782061882388902,101925.5,-582.0,781.0,-48.0,28.5,-30.375,18.0625,0.0,-1.75,0.4375,236.625,-35.875,-94.1875,-0.09710693359375,0.7213134765625,0.6036376953125,0.325439453125,-6.0,-10.0,9.0,-575.0,791.0,-58.0,494,501.9353796646324,3.6796176829416005,
229,11.019000053405762,0.04800009727478027,20.833291113462177,20.782285043117,101925.5,-573.0,804.0,-37.0,28.875,-29.5625,16.875,-0.0625,-1.0,-0.25,236.75,-35.875,-94.125,-0.096435546875,0.7210693359375,0.6036376953125,0.326171875,2.0,12.0,19.0,-575.0,791.0,-57.0,489,499.348303731706,-7.83576706230437,
230,11.067000150680542,0.04800009727478027,20.833291113462177,20.78250626804741,101925.5,-573.0,794.0,-47.0,28.875,-29.5625,17.25,-1.5625,-0.9375,-1.5625,236.8125,-35.9375,-94.0625,-0.0963134765625,0.7208251953125,0.60369873046875,0.32659912109375,2.0,2.0,9.0,-575.0,791.0,-56.0,465,492.4786429853648,-34.8921420856935,
231,11.116999864578247,0.04999971389770508,20.00011444157281,20.778987389936756,101925.5,-570.0,772.0,-48.0,28.5,-28.875,17.25,-1.0,-1.4375,1.5625,236.875,-36.0,-93.9375,-0.09625244140625,0.72027587890625,0.60394287109375,0.32733154296875,5.0,-18.0,7.0,-576.0,791.0,-55.0,503,494.5829143882919,-19.496579893620563,
232,11.160000085830688,0.043000221252441406,23.255694293508395,20.788530306066857,101926.75,-579.0,787.0,-44.0,27.375,-28.875,16.875,-0.625,-1.75,0.25,236.875,-35.9375,-93.8125,-0.0958251953125,0.71978759765625,0.60455322265625,0.32757568359375,-3.0,-3.0,8.0,-576.0,791.0,-53.0,461,487.86633151063353,-46.83702353486363,
233,11.20799994468689,0.04799985885620117,20.833394593842822,20.788722443780237,101926.75,-579.0,788.0,-47.0,29.5625,-29.5625,18.375,-0.5,-1.5625,1.0,236.9375,-35.9375,-93.75,-0.09527587890625,0.719482421875,0.60467529296875,0.3280029296875,-3.0,-10.0,0.0,-575.0,791.0,-52.0,512,492.6930652085068,-17.358169282452412,
234,11.259000062942505,0.051000118255615234,19.607797671918096,20.78337318517119,101926.75,-587.0,796.0,-64.0,28.875,-29.1875,17.25,-0.4375,0.375,-0.5625,236.9375,-35.9375,-93.75,-0.09503173828125,0.7193603515625,0.60479736328125,0.32818603515625,-19.0,1.0,-14.0,-575.0,792.0,-52.0,508,495.7544521668055,-1.8811242112081157,
235,11.303999900817871,0.04499983787536621,22.222302284058216,20.78910138551905,101926.75,-587.0,801.0,-49.0,28.875,-29.1875,15.75,0.0,1.1875,-1.5625,237.0625,-35.9375,-93.75,-0.09466552734375,0.7196044921875,0.604248046875,0.32879638671875,1.0,2.0,-5.0,-576.0,791.0,-52.0,508,498.2035617334444,9.380071254359306,
236,11.354000091552734,0.05000019073486328,19.999923706345726,20.785626043422504,101926.75,-564.0,789.0,-54.0,28.0625,-29.1875,15.75,-0.0625,0.9375,-1.0,237.125,-36.0,-93.8125,-0.0953369140625,0.7197265625,0.60394287109375,0.328857421875,9.0,1.0,10.0,-577.0,791.0,-53.0,508,500.16284938675557,15.341177720489078,
237,11.404000043869019,0.04999995231628418,20.000019073504518,20.782181610689765,101926.75,-553.0,776.0,-39.0,30.0,-29.1875,17.25,0.0625,-2.4375,0.125,237.1875,-36.0625,-93.75,-0.0950927734375,0.7193603515625,0.60418701171875,0.329345703125,21.0,-7.0,6.0,-577.0,790.0,-51.0,494,498.9302795094045,7.342657965101566,
238,11.452999830245972,0.048999786376953125,20.40825223822499,20.780581815034267,101926.75,-572.0,784.0,-61.0,28.875,-28.875,16.5625,-0.625,-1.4375,-0.625,237.25,-36.0625,-93.625,-0.0946044921875,0.71905517578125,0.604248046875,0.33001708984375,16.0,-14.0,-11.0,-577.0,790.0,-50.0,498,498.7442236075236,5.114711216882177,
239,11.498000144958496,0.045000314712524414,22.222066809716814,20.786223429018985,101926.75,-567.0,783.0,-48.0,28.0625,-28.0625,16.5625,0.25,0.6875,1.25,237.25,-36.0,-93.6875,-0.09442138671875,0.7191162109375,0.60430908203125,0.329833984375,0.0,8.0,11.0,-577.0,791.0,-51.0,498,498.5953788860189,3.430241504395507,
240,11.542999982833862,0.04499983787536621,22.222302284058216,20.79182191431303,101927.0,-579.0,785.0,-38.0,29.25,-29.5625,17.25,-0.0625,-0.1875,0.3125,237.1875,-36.0,-93.6875,-0.09442138671875,0.7191162109375,0.60430908203125,0.32977294921875,-1.0,-7.0,9.0,-577.0,791.0,-51.0,512,501.2763031088151,14.659454899442576,
241,11.594000101089478,0.051000118255615234,19.607797671918096,20.78661358449992,101927.0,-578.0,794.0,-36.0,28.0625,-30.375,16.875,0.3125,0.0,-0.5,237.1875,-36.0,-93.625,-0.0943603515625,0.71905517578125,0.6043701171875,0.32977294921875,-2.0,-1.0,10.0,-577.0,791.0,-50.0,498,500.62104248705214,9.15792038077332,
242,11.644000053405762,0.04999995231628418,20.000019073504518,20.783235906050795,101927.0,-581.0,782.0,-55.0,28.875,-30.0,16.5625,0.1875,0.3125,-0.3125,237.25,-36.0,-93.6875,-0.094482421875,0.7191162109375,0.604248046875,0.32989501953125,-3.0,-6.0,0.0,-577.0,791.0,-51.0,503,501.09683398964177,9.22950412997945,
243,11.694000005722046,0.04999995231628418,20.000019073504518,20.779887111432917,101927.0,-571.0,785.0,-39.0,28.5,-30.0,16.0625,-0.3125,-1.875,-0.8125,237.25,-36.0625,-93.625,-0.0943603515625,0.718994140625,0.60430908203125,0.33013916015625,6.0,-5.0,11.0,-577.0,791.0,-50.0,503,501.47746719171346,8.90613756427215,
244,11.740999937057495,0.04699993133544922,21.276626828723902,20.78187559050024,101927.0,-565.0,779.0,-42.0,28.875,-29.5625,16.875,-1.4375,-1.75,0.0,237.375,-36.0625,-93.5625,-0.0941162109375,0.71856689453125,0.60443115234375,0.33087158203125,12.0,-10.0,7.0,-577.0,790.0,-49.0,494,499.9819737533708,0.7610988889334287,
245,11.790000200271606,0.04900026321411133,20.40805363902648,20.780321954053566,101927.0,-569.0,789.0,-34.0,29.25,-29.1875,16.875,-0.0625,-0.4375,-0.0625,237.375,-36.0625,-93.4375,-0.0938720703125,0.71820068359375,0.604736328125,0.33111572265625,10.0,-3.0,3.0,-577.0,790.0,-48.0,479,495.7855790026967,-16.51917072131062,
246,11.838000059127808,0.04799985885620117,20.833394593842822,20.780537149120832,101927.0,-569.0,786.0,-39.0,28.875,-29.5625,17.25,-0.25,-0.3125,0.4375,237.375,-36.0625,-93.4375,-0.0938720703125,0.71820068359375,0.604736328125,0.3310546875,10.0,-10.0,2.0,-577.0,790.0,-48.0,494,495.4284632021574,-14.703323454714777,
247,11.88700008392334,0.04900002479553223,20.408152938142575,20.7790021246872,101927.0,-570.0,787.0,-47.0,28.875,-29.5625,17.25,-0.375,-0.3125,-0.4375,237.375,-36.0625,-93.4375,-0.09381103515625,0.71807861328125,0.60491943359375,0.33111572265625,6.0,-3.0,0.0,-577.0,791.0,-47.0,503,496.942770561726,-5.581815525885691,
248,11.931999921798706,0.04499983787536621,22.222302284058216,20.78444532562609,101924.5,-569.0,775.0,-41.0,30.0,-30.375,17.6875,0.5,0.9375,0.6875,237.3125,-36.0625,-93.5,-0.093994140625,0.71832275390625,0.60467529296875,0.33087158203125,8.0,-15.0,7.0,-577.0,790.0,-48.0,498,497.15421644938084,-3.525689534271086,
249,11.980000019073486,0.04800009727478027,20.833291113462177,20.784641035355964,101924.5,-575.0,792.0,-51.0,28.875,-29.1875,17.25,0.25,0.5625,-0.125,237.3125,-36.0,-93.5,-0.0938720703125,0.7183837890625,0.60479736328125,0.3306884765625,1.0,1.0,-2.0,-577.0,791.0,-48.0,479,493.52337315950473,-17.949034676486825,
250,12.03000020980835,0.05000019073486328,19.999923706345726,20.781379521188118,101924.5,-576.0,793.0,-32.0,27.75,-30.0,16.875,0.1875,-1.1875,0.125,237.3125,-36.0,-93.5,-0.09368896484375,0.71832275390625,0.60479736328125,0.33074951171875,0.0,2.0,15.0,-577.0,791.0,-48.0,489,492.61869852760384,-17.977912464606298,
251,12.080999851226807,0.05099964141845703,19.607981001178075,20.776426048421094,101924.5,-580.0,791.0,-44.0,28.5,-29.1875,16.5625,-0.375,-0.25,0.125,237.375,-36.0,-93.4375,-0.09344482421875,0.71820068359375,0.6048583984375,0.33111572265625,-3.0,0.0,3.0,-577.0,791.0,-48.0,508,495.6949588220831,-2.3184792899194964,
252,12.127000093460083,0.04600024223327637,21.739015958411727,20.78007735284013,101924.5,-571.0,782.0,-37.0,29.25,-30.0,17.25,0.5625,1.25,-0.5625,237.3125,-36.0,-93.5,-0.09356689453125,0.71826171875,0.60479736328125,0.33087158203125,0.0,-1.0,3.0,-577.0,791.0,-48.0,503,497.15596705766654,4.497392837808316,
253,12.174999952316284,0.04799985885620117,20.833394593842822,20.780287555719205,101924.5,-574.0,790.0,-51.0,29.25,-30.0,15.0,0.5625,0.375,-0.25,237.3125,-36.0,-93.5,-0.09368896484375,0.71844482421875,0.60467529296875,0.33074951171875,2.0,0.0,-2.0,-577.0,791.0,-48.0,475,492.72477364613326,-14.865445902575248,
254,12.223000049591064,0.04800009727478027,20.833291113462177,20.78049570232129,101924.5,-565.0,782.0,-44.0,28.5,-28.875,18.0625,-0.3125,-0.5,0.0625,237.3125,-36.0,-93.5,-0.09368896484375,0.71844482421875,0.60467529296875,0.33074951171875,12.0,-9.0,4.0,-577.0,791.0,-48.0,465,487.17981891690664,-34.996287939049594,
255,12.271000146865845,0.04800009727478027,20.833291113462177,20.78070222052193,101924.5,-574.0,782.0,-46.0,28.875,-30.0,17.25,0.375,-0.5625,0.625,237.375,-36.0,-93.5,-0.09344482421875,0.7183837890625,0.60467529296875,0.3309326171875,2.0,-9.0,2.0,-577.0,791.0,-48.0,494,488.54385513352537,-22.31355763321497,
256,12.32200002670288,0.05099987983703613,19.607889336119566,20.77584803158781,101928.5,-579.0,797.0,-48.0,27.75,-29.1875,16.875,-0.4375,-0.4375,0.4375,237.3125,-36.0,-93.4375,-0.09307861328125,0.71832275390625,0.6048583984375,0.3309326171875,-3.0,5.0,0.0,-576.0,791.0,-48.0,489,488.63508410682033,-17.493084584048898,
257,12.371999979019165,0.04999995231628418,20.000019073504518,20.772712612013326,101928.5,-576.0,782.0,-51.0,29.5625,-28.5,16.0625,-0.125,-0.1875,0.5625,237.3125,-36.0,-93.4375,-0.09307861328125,0.71832275390625,0.6048583984375,0.3309326171875,0.0,-9.0,-3.0,-576.0,791.0,-48.0,479,486.7080672854563,-21.702542303688013,
258,12.418000221252441,0.04600024223327637,21.739015958411727,20.776292108487247,101928.5,-578.0,804.0,-45.0,29.5625,-29.5625,16.875,-0.6875,-0.1875,-0.0625,237.3125,-35.9375,-93.4375,-0.09295654296875,0.71832275390625,0.60498046875,0.330810546875,-1.0,12.0,2.0,-576.0,791.0,-48.0,451,479.56645382836507,-48.41236362545329,
259,12.466000080108643,0.04799985885620117,20.833394593842822,20.776511979433806,101928.5,-577.0,791.0,-43.0,28.5,-28.875,16.875,-0.8125,-0.25,0.375,237.3125,-36.0,-93.4375,-0.093017578125,0.71826171875,0.60498046875,0.33087158203125,-1.0,0.0,4.0,-576.0,791.0,-48.0,479,479.4531630626921,-39.20193714538329,
260,12.511000156402588,0.04500007629394531,22.222184546263723,20.781711833561385,101928.5,-574.0,789.0,-42.0,28.875,-30.0,15.375,-0.8125,-1.0625,0.3125,237.3125,-36.0,-93.375,-0.093017578125,0.71795654296875,0.60528564453125,0.33099365234375,2.0,-1.0,4.0,-576.0,791.0,-47.0,,479.4531630626921,-39.20193714538329,
261,12.55400013923645,0.042999982833862305,23.25582323750381,20.79018616419056,101928.5,-573.0,778.0,-46.0,28.0625,-29.1875,16.5625,-1.375,-3.5,-0.3125,237.375,-36.0,-93.25,-0.092529296875,0.71728515625,0.605712890625,0.33172607421875,2.0,-13.0,0.0,-576.0,791.0,-45.0,498,483.1625304501537,-14.108671259152924,
262,12.604000091552734,0.04999995231628418,20.000019073504518,20.787051578616992,101928.5,-577.0,792.0,-41.0,27.75,-29.1875,18.0625,-1.4375,-2.375,-0.25,237.4375,-36.0,-93.0625,-0.0919189453125,0.716552734375,0.606201171875,0.33258056640625,0.0,0.0,1.0,-576.0,791.0,-42.0,484,483.330024360123,-10.616960728506104,
263,12.651999950408936,0.04799985885620117,20.833394593842822,20.78722739731748,101928.5,-571.0,801.0,-17.0,29.25,-29.1875,16.5625,-1.0,-1.25,0.625,237.5,-36.0,-93.0,-0.0916748046875,0.71612548828125,0.6065673828125,0.3328857421875,4.0,9.0,23.0,-576.0,792.0,-41.0,494,485.4640194880984,0.39810392968514385,
264,12.698000192642212,0.04600024223327637,21.739015958411727,20.790675381543416,101922.75,-569.0,789.0,-46.0,29.5625,-30.0,15.75,-0.3125,-1.0625,0.25,237.5625,-36.0,-92.9375,-0.0916748046875,0.7158203125,0.60662841796875,0.3333740234375,7.0,-1.0,-5.0,-577.0,791.0,-40.0,494,487.17121559047877,7.741035806505065,
265,12.746000051498413,0.04799985885620117,20.833394593842822,20.790836256810366,101922.75,-556.0,777.0,-31.0,28.5,-29.5625,16.5625,0.5,0.125,-0.5,237.5625,-36.0,-92.875,-0.091552734375,0.7156982421875,0.606689453125,0.33355712890625,20.0,-13.0,8.0,-577.0,791.0,-40.0,522,494.13697247238304,35.216900998301625,
266,12.795000076293945,0.04900002479553223,20.408152938142575,20.789370724024767,101922.75,-557.0,769.0,-57.0,28.5,-30.375,16.5625,1.5,0.25,-0.0625,237.625,-36.0625,-92.9375,-0.09149169921875,0.716064453125,0.60626220703125,0.3336181640625,20.0,-27.0,-17.0,-577.0,791.0,-41.0,508,496.90957797790645,39.490272237412896,
267,12.84600019454956,0.051000118255615234,19.607797671918096,20.78467974126963,101922.75,-584.0,798.0,-42.0,28.875,-31.0625,15.75,1.0,1.6875,1.375,237.5625,-35.9375,-93.0,-0.09112548828125,0.716552734375,0.606201171875,0.3328857421875,-6.0,2.0,6.0,-576.0,792.0,-42.0,536,504.72766238232515,62.25130122669434,
268,12.894000053405762,0.04799985885620117,20.833394593842822,20.784861089651674,101922.75,-569.0,802.0,-40.0,29.25,-30.0,16.5625,1.0625,2.0,1.4375,237.4375,-35.9375,-93.1875,-0.09136962890625,0.71722412109375,0.60577392578125,0.33203125,8.0,21.0,20.0,-575.0,792.0,-44.0,498,503.38212990586015,44.194639177150314,
269,12.944000005722046,0.04999995231628418,20.000019073504518,20.781829409848996,101922.75,-564.0,765.0,-31.0,28.5,-29.1875,17.25,2.5625,0.8125,-0.625,237.4375,-35.875,-93.3125,-0.09130859375,0.7178955078125,0.60516357421875,0.331787109375,0.0,-23.0,0.0,-575.0,792.0,-46.0,489,500.50570392468813,23.84999644432738,
270,12.99400019645691,0.05000019073486328,19.999923706345726,20.778820680149078,101922.75,-583.0,818.0,-47.0,28.0625,-30.375,16.5625,0.3125,-1.0625,1.6875,237.4375,-35.8125,-93.3125,-0.09051513671875,0.71795654296875,0.60516357421875,0.331787109375,-9.0,24.0,0.0,-574.0,793.0,-46.0,479,496.2045631397505,1.8754996456610513,
271,13.04200005531311,0.04799985885620117,20.833394593842822,20.779021534323547,101925.5,-566.0,794.0,-25.0,28.5,-30.0,16.875,0.5625,0.8125,-0.875,237.4375,-35.875,-93.3125,-0.090576171875,0.718017578125,0.6051025390625,0.33172607421875,7.0,0.0,21.0,-574.0,793.0,-46.0,484,493.76365051180045,-8.67009947290669,
272,13.087000131607056,0.04500007629394531,22.222184546263723,20.78398389735471,101925.5,-560.0,771.0,-24.0,28.5,-30.0,16.875,0.25,-1.4375,-1.3125,237.5,-35.875,-93.3125,-0.09075927734375,0.71795654296875,0.60498046875,0.3321533203125,15.0,-21.0,22.0,-575.0,792.0,-46.0,489,492.81092040944037,-11.170428409810631,
273,13.134999990463257,0.04799985885620117,20.833394593842822,20.78416446122674,101925.5,-561.0,795.0,-48.0,28.5,-30.0,17.25,0.875,-1.25,0.1875,237.5625,-35.875,-93.25,-0.0902099609375,0.7176513671875,0.6051025390625,0.33270263671875,10.0,0.0,6.0,-575.0,792.0,-45.0,503,494.84873632755233,-0.44541810152039396,
274,13.183000087738037,0.04800009727478027,20.833291113462177,20.784343334326216,101925.5,-566.0,797.0,-37.0,28.875,-29.5625,16.875,0.9375,0.5625,0.4375,237.625,-35.875,-93.3125,-0.09002685546875,0.71795654296875,0.60479736328125,0.33270263671875,8.0,4.0,8.0,-575.0,792.0,-46.0,498,495.47898906204193,2.269713257319178,
275,13.230000019073486,0.04699993133544922,21.276626828723902,20.786092184696656,101925.5,-561.0,779.0,-37.0,28.5,-29.5625,16.5625,0.75,1.0625,0.0625,237.5625,-35.875,-93.3125,-0.090087890625,0.718017578125,0.60479736328125,0.33245849609375,9.0,-14.0,9.0,-575.0,792.0,-46.0,517,499.78319124963355,20.131551354008106,
276,13.276999950408936,0.04699993133544922,21.276626828723902,20.78782865337731,101925.5,-576.0,797.0,-53.0,28.5,-30.0,16.0625,-0.1875,-0.0625,0.1875,237.5625,-35.875,-93.375,-0.0899658203125,0.71826171875,0.604736328125,0.33221435546875,-1.0,2.0,-4.0,-574.0,793.0,-47.0,494,498.62655299970686,11.183368999302807,
277,13.324999809265137,0.04799985885620117,20.833394593842822,20.787992792870167,101925.5,-560.0,778.0,-33.0,29.5625,-29.1875,16.875,-0.875,-0.4375,-0.4375,237.5,-35.875,-93.3125,-0.0902099609375,0.71795654296875,0.60504150390625,0.33221435546875,10.0,-8.0,30.0,-574.0,793.0,-46.0,494,497.70124239976553,5.091223029353628,
278,13.374000072479248,0.04900026321411133,20.40805363902648,20.786600754703365,101925.5,-557.0,767.0,-39.0,28.875,-30.0,17.6875,0.5625,-0.375,-0.125,237.5,-35.875,-93.25,-0.09014892578125,0.71783447265625,0.6051025390625,0.33233642578125,14.0,-26.0,12.0,-574.0,793.0,-45.0,498,497.76099391981245,4.316860868709069,
279,13.422000169754028,0.04800009727478027,20.833291113462177,20.78676772994803,101924.25,-589.0,796.0,-33.0,29.5625,-30.375,15.75,0.375,-0.375,1.25,237.4375,-35.8125,-93.25,-0.08984375,0.71771240234375,0.60540771484375,0.33209228515625,-15.0,2.0,11.0,-574.0,793.0,-45.0,512,500.60879513584996,15.319303048363466,
280,13.47000002861023,0.04799985885620117,20.833394593842822,20.786933883094363,101924.25,-579.0,810.0,-42.0,29.25,-29.5625,16.0625,-0.8125,2.0625,1.1875,237.375,-35.75,-93.25,-0.0899658203125,0.7177734375,0.6055908203125,0.33160400390625,-5.0,15.0,16.0,-573.0,794.0,-45.0,550,510.48703610868,53.414900854697585,
281,13.516999959945679,0.04699993133544922,21.276626828723902,20.78863659337684,101924.25,-563.0,796.0,-43.0,28.5,-30.0,15.375,-0.6875,0.375,-1.4375,237.3125,-35.8125,-93.25,-0.0904541015625,0.7176513671875,0.60577392578125,0.3314208984375,20.0,-10.0,8.0,-573.0,793.0,-45.0,526,513.5896288869441,55.93446243268173,
282,13.563999891281128,0.04699993133544922,21.276626828723902,20.790327503708415,101924.25,-566.0,803.0,-51.0,28.5,-30.375,15.75,-0.5625,-1.5625,0.375,237.375,-35.8125,-93.1875,-0.090087890625,0.7174072265625,0.60595703125,0.33172607421875,12.0,-5.0,1.0,-573.0,793.0,-44.0,564,523.6717031095552,87.65007612494415,
283,13.611999988555908,0.04800009727478027,20.833291113462177,20.790479006606535,101924.25,-561.0,784.0,-48.0,28.875,-29.5625,16.875,-1.25,0.9375,-0.1875,237.3125,-35.8125,-93.125,-0.09033203125,0.71710205078125,0.6063232421875,0.33160400390625,11.0,-6.0,5.0,-573.0,794.0,-43.0,536,526.1373624876442,80.3936208220284,
284,13.664000034332275,0.05200004577636719,19.230752301654256,20.784543273303523,101924.25,-566.0,788.0,-52.0,28.5,-29.1875,16.0625,-0.6875,0.5625,0.5625,237.25,-35.75,-93.125,-0.09063720703125,0.71697998046875,0.60662841796875,0.33123779296875,5.0,9.0,-5.0,-573.0,794.0,-43.0,550,530.9098899901153,82.67075550819368,
285,13.710999965667725,0.04699993133544922,21.276626828723902,20.786230086327663,101924.25,-568.0,810.0,-52.0,28.0625,-29.5625,16.5625,-0.375,-0.875,0.1875,237.25,-35.75,-93.125,-0.09039306640625,0.71697998046875,0.606689453125,0.33123779296875,4.0,16.0,-8.0,-573.0,794.0,-43.0,559,536.5279119920922,90.04311593687952,
286,13.758000135421753,0.04700016975402832,21.27651889840869,20.787905014163794,101924.25,-548.0,774.0,-57.0,28.875,-30.375,16.1875,0.3125,0.0625,-0.625,237.25,-35.75,-93.125,-0.0904541015625,0.717041015625,0.60650634765625,0.33135986328125,24.0,-16.0,-21.0,-573.0,794.0,-43.0,578,544.8223295936738,107.32975931977248,
287,13.808000087738037,0.04999995231628418,20.000019073504518,20.785052011613583,101927.5,-585.0,804.0,-42.0,28.875,-30.0,15.75,-0.4375,1.1875,0.75,237.1875,-35.6875,-93.1875,-0.09039306640625,0.71728515625,0.60662841796875,0.33074951171875,-12.0,10.0,2.0,-572.0,794.0,-44.0,550,545.857863674939,90.00594773113185,
288,13.85699987411499,0.048999786376953125,20.40825223822499,20.783719608599174,101927.5,-578.0,796.0,-49.0,29.25,-30.375,15.375,0.9375,1.5,1.1875,237.125,-35.6875,-93.25,-0.09051513671875,0.7176513671875,0.60638427734375,0.33026123046875,-6.0,1.0,-4.0,-572.0,794.0,-45.0,569,550.4862909399512,90.89638040303481,
289,13.906000137329102,0.04900026321411133,20.40805363902648,20.782395882782414,101927.5,-555.0,778.0,-38.0,28.5,-29.5625,16.5625,-0.125,0.0,-0.375,237.125,-35.6875,-93.3125,-0.090576171875,0.7178955078125,0.606201171875,0.330078125,16.0,-16.0,7.0,-572.0,794.0,-46.0,540,548.3890327519609,64.15691280334919,
290,13.95199990272522,0.045999765396118164,21.739241306747797,20.785550603634594,101927.5,-562.0,809.0,-31.0,28.5,-29.5625,16.875,-0.3125,-2.3125,-0.3125,237.125,-35.625,-93.25,-0.08990478515625,0.71759033203125,0.6064453125,0.3304443359375,9.0,13.0,13.0,-571.0,795.0,-45.0,554,549.5112262015688,56.20465708145464,
291,13.998000144958496,0.04600024223327637,21.739015958411727,20.788683882447753,101927.5,-574.0,804.0,-32.0,28.5,-29.5625,15.75,-0.3125,-2.1875,1.125,237.25,-35.625,-93.125,-0.08929443359375,0.71728515625,0.6065673828125,0.33111572265625,-2.0,9.0,11.0,-572.0,795.0,-43.0,578,555.2089809612551,69.73644199475105,
292,14.044999837875366,0.04699969291687012,21.276734760134126,20.790317078720012,101927.5,-569.0,800.0,-51.0,27.75,-29.5625,18.5,0.4375,0.4375,-0.3125,237.25,-35.625,-93.125,-0.089111328125,0.71722412109375,0.6065673828125,0.33123779296875,2.0,5.0,-7.0,-572.0,795.0,-43.0,550,554.167184769004,51.35594934447234,
293,14.092999935150146,0.04800009727478027,20.833291113462177,20.790463446268255,101927.5,-582.0,810.0,-33.0,29.25,-28.875,16.5625,-0.875,-0.875,1.5,237.1875,-35.625,-93.125,-0.0889892578125,0.71710205078125,0.60687255859375,0.33099365234375,-11.0,14.0,9.0,-571.0,795.0,-43.0,559,555.1337478152033,45.11209733977447,
294,14.138000011444092,0.04500007629394531,22.222184546263723,20.795020495262406,101927.5,-571.0,790.0,-38.0,28.875,-29.5625,16.5625,0.8125,-0.25,-0.4375,237.1875,-35.625,-93.0625,-0.08892822265625,0.717041015625,0.6068115234375,0.3311767578125,0.0,-4.0,4.0,-571.0,795.0,-43.0,536,551.3069982521627,19.081930871375093,
295,14.187000036239624,0.04900002479553223,20.408152938142575,20.793684305804238,101928.0,-545.0,788.0,-31.0,28.875,-29.1875,16.1875,0.0,0.1875,-1.0,237.25,-35.625,-93.0625,-0.089111328125,0.7169189453125,0.60687255859375,0.331298828125,26.0,-6.0,11.0,-571.0,795.0,-42.0,550,551.0455986017301,14.198607888299346,
296,14.236999988555908,0.04999995231628418,20.000019073504518,20.79089697534122,101928.0,-544.0,758.0,-44.0,28.0625,-29.5625,16.0625,1.0,0.375,-0.0625,237.25,-35.625,-93.125,-0.08905029296875,0.71710205078125,0.60662841796875,0.33135986328125,27.0,-36.0,0.0,-572.0,795.0,-43.0,489,538.6364788813842,-38.27763990782468,
297,14.28499984741211,0.04799985885620117,20.833394593842822,20.791039774060966,101928.0,-582.0,813.0,-42.0,28.0625,-29.5625,16.0625,0.9375,0.0625,2.4375,237.1875,-35.5625,-93.125,-0.08843994140625,0.7174072265625,0.60662841796875,0.3309326171875,-11.0,17.0,1.0,-570.0,796.0,-44.0,601,551.1091831051074,21.347641822763396,
298,14.33299994468689,0.04800009727478027,20.833291113462177,20.7911812704964,101928.0,-571.0,797.0,-46.0,27.75,-30.0,16.1875,0.8125,1.1875,0.0625,237.1875,-35.5625,-93.25,-0.08831787109375,0.71783447265625,0.6063232421875,0.33062744140625,-1.0,1.0,0.0,-570.0,796.0,-45.0,564,553.687346484086,27.82043910067648,
299,14.384000062942505,0.051000118255615234,19.607797671918096,20.786985448527187,101928.0,-563.0,788.0,-39.0,29.25,-30.375,17.25,0.1875,-0.25,0.125,237.1875,-35.5625,-93.25,-0.08843994140625,0.7178955078125,0.60626220703125,0.33050537109375,6.0,-7.0,5.0,-570.0,796.0,-45.0,611,565.1498771872689,67.20734784777304,
300,14.434999942779541,0.05099987983703613,19.607889336119566,20.78281961823363,101928.0,-575.0,821.0,-27.0,28.0625,-30.0,16.875,-0.6875,-3.3125,0.8125,237.1875,-35.5,-93.125,-0.08770751953125,0.717529296875,0.6065673828125,0.33099365234375,-4.0,24.0,16.0,-570.0,796.0,-44.0,620,576.1199017498152,96.78568380560274,
301,14.483000040054321,0.04800009727478027,20.833291113462177,20.78298689273987,101928.0,-572.0,799.0,-29.0,28.5,-30.375,16.875,0.625,-2.6875,0.1875,237.375,-35.5625,-93.0,-0.0869140625,0.717041015625,0.60662841796875,0.3321533203125,-1.0,3.0,12.0,-570.0,796.0,-42.0,615,583.8959213998521,109.82856325912647,
302,14.539999961853027,0.056999921798706055,17.54388371849838,20.770288912814557,101928.0,-562.0,787.0,-41.0,28.875,-30.375,16.5625,0.5625,0.875,-0.625,237.4375,-35.5625,-93.0625,-0.0867919921875,0.7171630859375,0.60626220703125,0.33258056640625,8.0,-8.0,1.0,-570.0,796.0,-42.0,648,596.7167371198817,132.84823064100027,
303,14.591000080108643,0.051000118255615234,19.607797671918096,20.766225641590424,101924.5,-568.0,802.0,-24.0,28.875,-30.375,16.5625,-0.5,1.4375,-1.0,237.4375,-35.5625,-93.0625,-0.0872802734375,0.71734619140625,0.60614013671875,0.332275390625,-1.0,12.0,24.0,-571.0,795.0,-43.0,648,606.9733896959054,146.5006582131664,
304,14.63699984550476,0.045999765396118164,21.739241306747797,20.769283542307537,101924.5,-543.0,792.0,-26.0,28.875,-29.5625,16.875,1.875,-1.125,-2.75,237.5625,-35.6875,-93.125,-0.08770751953125,0.7174072265625,0.605712890625,0.332763671875,29.0,-2.0,17.0,-572.0,795.0,-43.0,597,604.9787117567244,108.5279695607123,
305,14.687999963760376,0.051000118255615234,19.607797671918096,20.7652505958963,101924.5,-553.0,791.0,-31.0,28.5,-30.0,16.1875,0.3125,-2.4375,1.1875,237.6875,-35.6875,-93.125,-0.087158203125,0.7174072265625,0.6053466796875,0.33367919921875,19.0,-3.0,11.0,-572.0,794.0,-43.0,592,602.3829694053795,76.6430174818502,
306,14.736000061035156,0.04800009727478027,20.833291113462177,20.765472226694907,101924.5,-542.0,795.0,-51.0,28.5,-29.5625,16.1875,0.625,-0.875,1.25,237.75,-35.6875,-93.0625,-0.08624267578125,0.7171630859375,0.60552978515625,0.333984375,21.0,2.0,7.0,-572.0,795.0,-42.0,615,604.9063755243037,71.82858484008803,
307,14.780999898910522,0.04499983787536621,22.222302284058216,20.76990745549145,101924.5,-548.0,787.0,-38.0,28.0625,-30.375,14.5625,-0.1875,0.25,0.0,237.625,-35.5625,-93.0,-0.085693359375,0.71710205078125,0.60589599609375,0.3336181640625,28.0,-21.0,10.0,-571.0,796.0,-42.0,648,613.525100419443,95.76844985665504,
308,14.824999809265137,0.04399991035461426,22.72731903180185,20.77571696206769,101924.5,-572.0,792.0,-25.0,28.0625,-29.5625,16.1875,-1.0,-0.4375,2.375,237.5625,-35.5,-92.9375,-0.085205078125,0.71697998046875,0.6063232421875,0.333251953125,-8.0,2.0,18.0,-569.0,796.0,-41.0,634,617.6200803355543,95.22834288178083,
309,14.871000051498413,0.04600024223327637,21.739015958411727,20.778696720457944,101924.5,-594.0,797.0,-40.0,28.5,-30.375,16.875,0.0,-1.1875,1.1875,237.5,-35.4375,-92.9375,-0.08465576171875,0.7169189453125,0.6065673828125,0.3331298828125,-19.0,-2.0,-3.0,-569.0,797.0,-41.0,601,614.2960642684435,61.73050663963673,
310,14.919000148773193,0.04800009727478027,20.833291113462177,20.778872371382853,101924.5,-599.0,814.0,-40.0,28.5,-30.0,15.75,-0.25,0.375,-1.375,237.5625,-35.4375,-92.9375,-0.084716796875,0.71685791015625,0.60650634765625,0.333251953125,-19.0,12.0,2.0,-569.0,797.0,-41.0,625,616.4368514147548,58.30433367792145,
311,14.96399998664856,0.04499983787536621,22.222302284058216,20.783213063184032,101923.5,-566.0,803.0,-44.0,29.25,-28.875,16.875,0.3125,0.8125,-1.625,237.625,-35.5625,-92.9375,-0.08526611328125,0.716796875,0.60626220703125,0.33367919921875,3.0,7.0,-7.0,-570.0,796.0,-41.0,646,622.3494811318038,72.92191591553117,
312,15.01200008392334,0.04800009727478027,20.833291113462177,20.78337318517119,101923.5,-547.0,779.0,-52.0,28.0625,-29.5625,16.5625,0.0,1.1875,-2.375,237.625,-35.625,-93.0,-0.08599853515625,0.7169189453125,0.60601806640625,0.333740234375,24.0,-15.0,-10.0,-571.0,795.0,-42.0,630,623.8795849054432,64.71295220243196,
313,15.062999963760376,0.05099987983703613,19.607889336119566,20.779393265155505,101923.5,-544.0,781.0,-37.0,28.5,-30.6875,16.5625,0.5,1.0,-1.1875,237.6875,-35.6875,-93.0625,-0.0867919921875,0.71710205078125,0.60565185546875,0.333740234375,29.0,-15.0,-1.0,-572.0,795.0,-42.0,639,626.9036679243545,63.62953879755607,
314,15.11299991607666,0.04999995231628418,20.000019073504518,20.776814778247847,101923.5,-546.0,774.0,-54.0,28.875,-29.5625,16.5625,0.3125,0.5,0.75,237.625,-35.625,-93.0625,-0.08660888671875,0.71734619140625,0.6055908203125,0.33343505859375,23.0,-13.0,2.0,-571.0,795.0,-43.0,583,618.1229343394837,15.780663202689091,
315,15.164000034332275,0.051000118255615234,19.607797671918096,20.772883097257957,101923.5,-550.0,784.0,-42.0,28.5,-29.5625,16.1875,0.25,-0.0625,0.5,237.5625,-35.625,-93.0625,-0.0863037109375,0.7174072265625,0.60577392578125,0.3331298828125,20.0,-11.0,1.0,-571.0,795.0,-43.0,587,611.8983474715869,-11.785557417248233,
316,15.210999965667725,0.04699993133544922,21.276626828723902,20.774439597214766,101923.5,-565.0,798.0,-48.0,27.75,-30.0,16.5625,0.75,-0.875,1.625,237.5625,-35.5625,-93.125,-0.08587646484375,0.71759033203125,0.60565185546875,0.3330078125,5.0,2.0,-5.0,-570.0,796.0,-43.0,554,600.3186779772695,-58.70370725990839,
317,15.258000135421753,0.04700016975402832,21.27651889840869,20.775986183410637,101923.5,-565.0,785.0,-38.0,28.875,-30.0,17.6875,-0.125,-1.0,-0.4375,237.5625,-35.5,-93.0625,-0.08526611328125,0.71746826171875,0.6058349609375,0.3331298828125,8.0,-16.0,-5.0,-570.0,796.0,-43.0,569,594.0549423818156,-73.61706356218878,
318,15.309000015258789,0.05099987983703613,19.607889336119566,20.772094825464954,101927.25,-573.0,802.0,-32.0,28.5,-30.375,15.375,-0.3125,-0.25,1.0625,237.5625,-35.5,-93.0625,-0.08502197265625,0.71746826171875,0.60595703125,0.33294677734375,-4.0,3.0,-5.0,-569.0,797.0,-43.0,554,586.0439539054526,-90.3093659532423,
319,15.355000019073486,0.046000003814697266,21.739128631995772,20.774991833523185,101927.25,-578.0,806.0,-38.0,28.5,-30.0,16.1875,-0.625,0.0,0.375,237.5,-35.5,-93.0625,-0.0850830078125,0.71734619140625,0.6060791015625,0.3328857421875,-8.0,8.0,4.0,-569.0,797.0,-42.0,550,578.835163124362,-103.59005877684842,
320,15.403000116348267,0.04800009727478027,20.833291113462177,20.7751735105398,101927.25,-556.0,784.0,-42.0,27.75,-29.5625,16.5625,0.25,-0.8125,-0.5,237.5625,-35.5,-93.0625,-0.0850830078125,0.71734619140625,0.6060791015625,0.3330078125,12.0,-12.0,0.0,-569.0,797.0,-42.0,569,576.8681304994896,-91.06799968220781,
321,15.447999954223633,0.04499983787536621,22.222302284058216,20.77938897923388,101927.25,-556.0,810.0,-35.0,28.0625,-29.5625,16.875,0.0625,-0.5625,0.625,237.5,-35.4375,-93.0,-0.0848388671875,0.71728515625,0.60614013671875,0.33294677734375,12.0,13.0,7.0,-569.0,797.0,-42.0,559,573.2945043995917,-88.73723963419233,
322,15.498000144958496,0.05000019073486328,19.999923706345726,20.776874241077273,101927.25,-543.0,780.0,-39.0,28.5,-30.0,16.1875,0.625,0.8125,-0.625,237.5,-35.4375,-93.0,-0.0848388671875,0.71728515625,0.60614013671875,0.33294677734375,26.0,-17.0,2.0,-569.0,797.0,-42.0,564,571.4356035196734,-78.42536686255902,
323,15.546000003814697,0.04799985885620117,20.833394593842822,20.777048753424793,101927.25,-562.0,793.0,-47.0,28.5,-29.5625,16.875,0.4375,0.375,2.5625,237.4375,-35.375,-93.0625,-0.08465576171875,0.71746826171875,0.6063232421875,0.3323974609375,6.0,-4.0,-4.0,-568.0,797.0,-42.0,583,573.7484828157387,-53.103268085475335,
324,15.594000101089478,0.04800009727478027,20.833291113462177,20.777221873774625,101927.25,-559.0,806.0,-64.0,27.375,-30.375,16.875,0.5625,-0.5,0.5,237.375,-35.3125,-93.0625,-0.08416748046875,0.7176513671875,0.6063232421875,0.33203125,7.0,7.0,-21.0,-567.0,798.0,-43.0,573,573.598786252591,-43.10634888412843,
325,15.644999980926514,0.05099987983703613,19.607889336119566,20.77341006048075,101927.25,-557.0,790.0,-85.0,27.75,-30.6875,16.1875,-0.3125,-0.875,1.125,237.375,-35.3125,-93.125,-0.08380126953125,0.7178955078125,0.6060791015625,0.33203125,9.0,-8.0,-41.0,-567.0,798.0,-43.0,564,571.6790290020729,-42.01355665137739,
326,15.695000171661377,0.05000019073486328,19.999923706345726,20.770945934019167,101926.5,-543.0,781.0,-96.0,28.0625,-30.6875,16.1875,2.5625,-0.75,2.125,237.375,-35.1875,-93.375,-0.0828857421875,0.71929931640625,0.60504150390625,0.33111572265625,22.0,-18.0,-49.0,-565.0,799.0,-47.0,554,568.1432232016583,-47.754014570851055,
327,15.740999937057495,0.045999765396118164,21.739241306747797,20.773775573823357,101926.5,-573.0,831.0,-75.0,28.0625,-30.6875,16.1875,4.0625,-1.375,2.9375,237.3125,-35.0625,-93.5625,-0.08154296875,0.7205810546875,0.60406494140625,0.33056640625,-9.0,30.0,-25.0,-563.0,800.0,-50.0,540,562.5145785613267,-62.675704469900985,
328,15.786999940872192,0.046000003814697266,21.739128631995772,20.776588409987593,101926.5,-571.0,803.0,-85.0,27.75,-30.0,16.875,5.5,-4.125,0.875,237.5625,-35.0,-93.75,-0.07977294921875,0.72149658203125,0.6026611328125,0.33148193359375,-7.0,2.0,-32.0,-563.0,800.0,-52.0,531,556.2116628490614,-77.54454266103333,
329,15.835999965667725,0.04900002479553223,20.408152938142575,20.77544839058275,101926.5,-566.0,796.0,-80.0,27.375,-30.375,16.5625,7.125,-0.5,0.1875,237.8125,-35.0,-94.0,-0.07806396484375,0.72308349609375,0.6007080078125,0.3319091796875,-4.0,-4.0,-23.0,-562.0,801.0,-56.0,517,548.3693302792492,-94.04513862412766,
330,15.884000062942505,0.04800009727478027,20.833291113462177,20.775623186371835,101926.5,-569.0,816.0,-56.0,28.875,-30.6875,16.875,6.75,0.625,1.0,238.0,-34.9375,-94.4375,-0.07708740234375,0.7252197265625,0.598388671875,0.33172607421875,-7.0,15.0,5.0,-562.0,800.0,-62.0,494,537.4954642233994,-120.54379431336494,
331,15.930000066757202,0.046000003814697266,21.739128631995772,20.778405437093017,101926.5,-554.0,797.0,-37.0,28.5,-29.5625,16.875,6.25,-1.6875,0.0,238.125,-34.9375,-94.625,-0.076171875,0.726318359375,0.596923828125,0.3321533203125,7.0,-3.0,27.0,-562.0,800.0,-65.0,494,528.7963713787195,-134.25717511712583,
332,15.975000143051147,0.04500007629394531,22.222184546263723,20.782472427357963,101926.5,-551.0,799.0,-58.0,28.0625,-30.375,16.875,5.6875,-4.3125,-0.4375,238.5,-34.9375,-94.75,-0.07427978515625,0.7271728515625,0.5953369140625,0.33349609375,10.0,-1.0,9.0,-562.0,800.0,-67.0,484,519.8370971029756,-147.22466936493575,
333,16.02300000190735,0.04799985885620117,20.833394593842822,20.782624974122218,101926.5,-541.0,799.0,-66.0,27.75,-29.1875,16.5625,5.4375,-3.0,0.0625,238.8125,-34.9375,-94.875,-0.07244873046875,0.7279052734375,0.593994140625,0.33477783203125,21.0,-1.0,2.0,-562.0,800.0,-68.0,479,511.6696776823805,-151.8107498124831,
334,16.07100009918213,0.04800009727478027,20.833291113462177,20.782776301332834,101924.75,-548.0,804.0,-50.0,28.875,-30.0,16.1875,4.6875,-2.0625,-0.0625,239.0,-34.9375,-95.0625,-0.07086181640625,0.72882080078125,0.5926513671875,0.33551025390625,13.0,3.0,20.0,-562.0,800.0,-71.0,498,508.93574214590444,-132.83997483335548,
335,16.11899995803833,0.04799985885620117,20.833394593842822,20.782927034684928,101924.75,-546.0,795.0,-64.0,29.5625,-30.0,16.5625,5.6875,-3.6875,-0.0625,239.25,-34.9375,-95.125,-0.06964111328125,0.7293701171875,0.591552734375,0.33642578125,15.0,-4.0,7.0,-562.0,800.0,-72.0,442,495.54859371672353,-162.0519290089782,
336,16.164000034332275,0.04500007629394531,22.222184546263723,20.786933883094363,101924.75,-539.0,789.0,-60.0,28.875,-29.5625,17.25,4.125,-4.625,0.0625,239.5625,-34.9375,-95.125,-0.06768798828125,0.72967529296875,0.59051513671875,0.3380126953125,22.0,-10.0,11.0,-562.0,800.0,-72.0,484,493.23887497337887,-139.90694244009643,
337,16.211999893188477,0.04799985885620117,20.833394593842822,20.78707144216005,101924.75,-554.0,796.0,-37.0,29.25,-29.1875,16.5625,4.0625,-2.9375,0.5,239.75,-34.875,-95.125,-0.0660400390625,0.729736328125,0.59014892578125,0.33892822265625,7.0,3.0,39.0,-561.0,800.0,-72.0,456,485.79109997870313,-142.9580410141242,
338,16.259999990463257,0.04800009727478027,20.833291113462177,20.787207884270742,101924.75,-575.0,817.0,-62.0,29.25,-29.1875,17.25,2.3125,-1.9375,2.0,239.875,-34.875,-95.0625,-0.0643310546875,0.7296142578125,0.58984375,0.3399658203125,-14.0,16.0,8.0,-560.0,801.0,-71.0,433,475.2328799829626,-158.35892697354745,
339,16.307000160217285,0.04700016975402832,21.27651889840869,20.788618180493287,101924.75,-576.0,821.0,-43.0,29.25,-29.1875,17.6875,1.5,-2.1875,-0.625,239.9375,-34.875,-95.0625,-0.06378173828125,0.72967529296875,0.58966064453125,0.34039306640625,-15.0,20.0,28.0,-560.0,801.0,-71.0,418,463.7863039863701,-175.3957996815521,
340,16.35599994659424,0.048999786376953125,20.40825223822499,20.787478669000436,101924.75,-546.0,776.0,-64.0,28.875,-28.875,16.5625,1.4375,-3.375,-0.875,240.1875,-34.9375,-95.0625,-0.06317138671875,0.72955322265625,0.589111328125,0.341552734375,15.0,-23.0,6.0,-561.0,800.0,-71.0,447,460.4290431890961,-154.0198047812962,
341,16.402000188827515,0.04600024223327637,21.739015958411727,20.79014730363664,101924.75,-547.0,805.0,-36.0,28.5,-28.875,17.25,1.3125,-5.5625,-0.375,240.4375,-34.9375,-94.9375,-0.0618896484375,0.72918701171875,0.5888671875,0.3431396484375,14.0,4.0,33.0,-562.0,800.0,-69.0,456,459.5432345512769,-127.06716544776704,
342,16.450000047683716,0.04799985885620117,20.833394593842822,20.790273495966108,101926.25,-547.0,796.0,-38.0,29.25,-30.0,16.5625,1.5,-2.0,-0.375,240.625,-34.9375,-94.8125,-0.06048583984375,0.728515625,0.5889892578125,0.34442138671875,14.0,-4.0,29.0,-562.0,800.0,-67.0,447,457.0345876410215,-112.10645855380861,
343,16.500999927520752,0.05099987983703613,19.607889336119566,20.786619084091782,101926.25,-551.0,795.0,-26.0,29.25,-28.875,16.5625,2.0625,2.0,1.0,240.5625,-34.9375,-94.8125,-0.0601806640625,0.72857666015625,0.58905029296875,0.3443603515625,10.0,-5.0,40.0,-561.0,801.0,-67.0,433,452.22767011281724,-108.53586823122347,
344,16.549000024795532,0.04800009727478027,20.833291113462177,20.78675445553093,101926.25,-571.0,807.0,-27.0,28.5,-29.1875,16.1875,1.5625,0.4375,0.0,240.5625,-34.875,-94.875,-0.06011962890625,0.7288818359375,0.58880615234375,0.34405517578125,-9.0,5.0,40.0,-561.0,801.0,-68.0,442,450.18213609025383,-95.35173573988972,
345,16.59599995613098,0.04699993133544922,21.276626828723902,20.788141775846913,101926.25,-551.0,799.0,-64.0,28.5,-29.1875,16.1875,0.0625,-1.9375,0.0625,240.625,-34.875,-94.8125,-0.059814453125,0.72869873046875,0.5888671875,0.344482421875,9.0,-2.0,3.0,-561.0,801.0,-67.0,456,451.3457088722031,-71.3300078179929,
346,16.642000198364258,0.04600024223327637,21.739015958411727,20.790770092287847,101926.25,-543.0,795.0,-46.0,29.25,-29.5625,16.5625,-1.125,-1.8125,-0.4375,240.6875,-34.875,-94.6875,-0.059326171875,0.7281494140625,0.58929443359375,0.344970703125,18.0,-6.0,19.0,-561.0,801.0,-66.0,423,445.67656709776253,-81.7123189554067,
347,16.687999963760376,0.045999765396118164,21.739241306747797,20.79338451303598,101926.25,-564.0,802.0,-75.0,28.875,-28.875,16.5625,-0.6875,-2.125,1.5625,240.6875,-34.8125,-94.5625,-0.05853271484375,0.727783203125,0.589599609375,0.34539794921875,0.0,12.0,0.0,-560.0,801.0,-64.0,465,449.54125367821007,-48.566784334865545,
348,16.73199987411499,0.04399991035461426,22.72731903180185,20.798470154088907,101926.25,-540.0,794.0,-38.0,28.0625,-28.875,18.0625,0.375,-2.8125,0.375,240.8125,-34.8125,-94.4375,-0.05780029296875,0.72711181640625,0.5899658203125,0.34625244140625,5.0,2.0,17.0,-560.0,802.0,-62.0,465,452.63300294256806,-24.79999308841191,
349,16.780999898910522,0.04900002479553223,20.408152938142575,20.797330439329674,101926.25,-552.0,788.0,-84.0,28.875,-29.1875,17.25,1.1875,-0.4375,0.8125,240.875,-34.8125,-94.4375,-0.05718994140625,0.72723388671875,0.5897216796875,0.3465576171875,2.0,-3.0,-12.0,-560.0,802.0,-63.0,461,454.30640235405446,-13.009796247487081,
350,16.8270001411438,0.04600024223327637,21.739015958411727,20.79990474025212,101923.5,-560.0,810.0,-56.0,29.25,-30.0,18.0625,2.0,1.875,0.0,240.8125,-34.8125,-94.5625,-0.05712890625,0.727783203125,0.58929443359375,0.3460693359375,0.0,2.0,8.0,-560.0,802.0,-64.0,470,457.4451218832436,3.2386977888145516,
351,16.875999927520752,0.048999786376953125,20.40825223822499,20.7987675697724,101923.5,-545.0,795.0,-63.0,28.5,-29.5625,18.5,2.25,1.25,0.125,240.8125,-34.8125,-94.75,-0.05718994140625,0.7286376953125,0.5885009765625,0.345703125,16.0,-2.0,14.0,-560.0,802.0,-67.0,442,454.3560975065949,-10.017359498682815,
352,16.924000024795532,0.04800009727478027,20.833291113462177,20.798865485953737,101923.5,-558.0,807.0,-69.0,29.5625,-30.0,16.875,1.0625,-0.75,-0.6875,240.875,-34.8125,-94.75,-0.0570068359375,0.72882080078125,0.58819580078125,0.34588623046875,8.0,0.0,0.0,-560.0,802.0,-67.0,437,450.88487800527594,-22.47727287688722,
353,16.97099995613098,0.04699993133544922,21.276626828723902,20.800188610717335,101923.5,-552.0,805.0,-50.0,29.5625,-29.5625,16.875,-0.3125,-0.8125,-0.3125,240.9375,-34.8125,-94.75,-0.0567626953125,0.72857666015625,0.58831787109375,0.34619140625,8.0,-6.0,26.0,-560.0,802.0,-66.0,465,453.70790240422076,-5.968930968563454,
354,17.01800012588501,0.04700016975402832,21.27651889840869,20.801504135703517,101923.5,-551.0,818.0,-53.0,28.5,-29.5625,16.875,-0.1875,-1.5625,0.25,240.9375,-34.8125,-94.6875,-0.0565185546875,0.72833251953125,0.5885009765625,0.34649658203125,8.0,-4.0,17.0,-560.0,802.0,-65.0,451,453.16632192337664,-7.079734241988591,
355,17.069000005722046,0.05099987983703613,19.607889336119566,20.797937774971775,101923.5,-555.0,806.0,-59.0,29.5625,-29.1875,17.25,-1.4375,-1.125,-1.3125,241.0,-34.8125,-94.5,-0.05609130859375,0.72760009765625,0.58892822265625,0.34716796875,0.0,4.0,11.0,-560.0,802.0,-64.0,447,451.9330575387013,-10.500129708969249,
356,17.115999937057495,0.04699993133544922,21.276626828723902,20.79925223820735,101923.5,-542.0,800.0,-67.0,29.5625,-29.5625,16.5625,-0.9375,-0.0625,0.125,241.0,-34.8125,-94.4375,-0.05633544921875,0.72723388671875,0.58935546875,0.3472900390625,18.0,-1.0,252.0,-560.0,802.0,-62.0,484,458.3464460309611,18.890950964313397,
357,17.164000034332275,0.04800009727478027,20.833291113462177,20.799347429848,101923.5,-540.0,799.0,-58.0,29.5625,-28.875,16.875,-0.75,0.25,-0.625,240.9375,-34.8125,-94.375,-0.056396484375,0.72705078125,0.58966064453125,0.34722900390625,19.0,-3.0,4.0,-560.0,802.0,-62.0,479,462.4771568247689,32.32402086603436,
358,17.211999893188477,0.04799985885620117,20.833394593842822,20.799442378667216,101922.75,-551.0,799.0,-64.0,29.5625,-29.1875,16.875,-0.125,0.4375,1.5,240.9375,-34.75,-94.375,-0.05615234375,0.72705078125,0.5897216796875,0.3470458984375,8.0,-3.0,-2.0,-559.0,802.0,-62.0,470,463.98172545981515,32.12827110631517,
359,17.259999990463257,0.04800009727478027,20.833291113462177,20.799536512071832,101922.75,-555.0,790.0,-78.0,29.25,-29.1875,17.25,0.75,1.1875,-0.125,240.875,-34.75,-94.4375,-0.0562744140625,0.727294921875,0.58966064453125,0.3466796875,3.0,-12.0,-15.0,-559.0,802.0,-63.0,498,470.78538036785216,54.05112155198627,
360,17.304999828338623,0.04499983787536621,22.222302284058216,20.80323626530553,101922.75,-564.0,820.0,-65.0,29.25,-29.1875,16.875,0.375,1.1875,0.9375,240.8125,-34.6875,-94.5625,-0.05633544921875,0.727783203125,0.5894775390625,0.345947265625,-5.0,16.0,-1.0,-558.0,803.0,-64.0,489,474.42830429428176,59.431728579778394,
361,17.354000091552734,0.04900026321411133,20.40805363902648,20.802120438833064,101922.75,-560.0,815.0,-71.0,28.5,-29.5625,16.875,0.5,-0.3125,-1.1875,240.8125,-34.75,-94.5625,-0.05645751953125,0.727783203125,0.58941650390625,0.345947265625,-1.0,12.0,-7.0,-559.0,803.0,-64.0,470,473.5426434354254,43.930460001117424,
362,17.402000188827515,0.04800009727478027,20.833291113462177,20.802206417191762,101922.75,-543.0,791.0,-53.0,29.5625,-29.1875,16.875,-0.5625,-2.375,-0.6875,240.875,-34.8125,-94.5,-0.05645751953125,0.7275390625,0.58935546875,0.34661865234375,16.0,-10.0,10.0,-559.0,802.0,-63.0,494,477.6341147483404,52.19213058976128,
363,17.45199990272522,0.04999971389770508,20.00011444157281,20.79990843589884,101922.75,-539.0,810.0,-56.0,29.5625,-28.875,16.875,-0.125,-1.5625,1.1875,240.9375,-34.75,-94.4375,-0.05584716796875,0.727294921875,0.5894775390625,0.34716796875,20.0,8.0,6.0,-559.0,802.0,-62.0,461,474.30729179867234,28.44633652776669,
364,17.500999927520752,0.04900002479553223,20.408152938142575,20.798811582622836,101922.75,-536.0,782.0,-34.0,28.875,-29.1875,17.25,-0.125,-0.5,-0.0625,240.9375,-34.75,-94.375,-0.0555419921875,0.726806640625,0.5899658203125,0.3472900390625,22.0,-20.0,27.0,-559.0,803.0,-61.0,475,474.4458334389379,23.322545018781422,
365,17.546000003814697,0.04500007629394531,22.222184546263723,20.802462095101156,101922.75,-555.0,797.0,-57.0,29.5625,-29.1875,18.0625,-0.3125,-0.25,1.6875,240.875,-34.6875,-94.3125,-0.05499267578125,0.726806640625,0.59027099609375,0.346923828125,2.0,-6.0,3.0,-558.0,803.0,-61.0,479,475.3566667511503,22.706177205999065,
366,17.592999935150146,0.04699993133544922,21.276626828723902,20.803728832440104,101926.25,-573.0,810.0,-58.0,30.0,-28.875,16.1875,-0.1875,1.0,-0.4375,240.8125,-34.625,-94.3125,-0.0548095703125,0.726806640625,0.59039306640625,0.34661865234375,-21.0,12.0,6.0,-557.0,804.0,-61.0,489,478.0853334009203,29.776306174227322,
367,17.642000198364258,0.04900026321411133,20.40805363902648,20.80262985338974,101926.25,-562.0,810.0,-63.0,30.0,-28.875,16.1875,-0.5625,2.0,-0.3125,240.75,-34.625,-94.375,-0.05523681640625,0.72711181640625,0.59033203125,0.34613037109375,-5.0,6.0,-1.0,-557.0,804.0,-62.0,498,482.0682667207363,40.07782830567589,
368,17.69099998474121,0.048999786376953125,20.40825223822499,20.8015375228877,101926.25,-541.0,794.0,-56.0,28.875,-30.375,17.6875,-0.625,-0.5625,-0.3125,240.6875,-34.625,-94.375,-0.0556640625,0.72686767578125,0.590576171875,0.34613037109375,16.0,-9.0,4.0,-557.0,804.0,-61.0,517,489.05461337658903,60.57808759980519,
369,17.742000102996826,0.051000118255615234,19.607797671918096,20.79810606796647,101926.25,-550.0,818.0,-59.0,29.5625,-30.375,17.6875,-0.1875,-2.0625,-0.8125,240.75,-34.625,-94.3125,-0.05523681640625,0.72662353515625,0.59063720703125,0.3465576171875,7.0,13.0,1.0,-557.0,804.0,-60.0,526,496.44369070127124,77.43917671274946,
370,17.786999940872192,0.04499983787536621,22.222302284058216,20.801709182546773,101926.25,-547.0,796.0,-78.0,28.875,-29.5625,16.5625,0.3125,-1.1875,0.375,240.875,-34.625,-94.25,-0.054931640625,0.72650146484375,0.590576171875,0.3470458984375,10.0,-7.0,-17.0,-558.0,804.0,-60.0,,496.44369070127124,77.43917671274946,
371,17.8270001411438,0.040000200271606445,24.999874830872667,20.811129021295685,101926.25,-563.0,812.0,-61.0,29.25,-30.0,16.875,0.125,0.5625,-1.6875,240.8125,-34.625,-94.25,-0.0548095703125,0.7265625,0.590576171875,0.34698486328125,-5.0,8.0,-1.0,-557.0,804.0,-60.0,494,495.954952561017,59.507662903913804,
372,17.874000072479248,0.04699993133544922,21.276626828723902,20.812353054242827,101926.25,-541.0,796.0,-88.0,28.0625,-28.5,16.875,1.0625,1.5,-0.875,240.875,-34.6875,-94.3125,-0.055419921875,0.72674560546875,0.5902099609375,0.34698486328125,17.0,-7.0,-26.0,-558.0,803.0,-61.0,484,493.56396204881366,37.43168774729699,
373,17.924000024795532,0.04999995231628418,20.000019073504518,20.810087005356106,101926.25,-551.0,806.0,-73.0,28.875,-30.375,17.6875,-1.8125,-0.9375,1.4375,240.8125,-34.6875,-94.4375,-0.05560302734375,0.72735595703125,0.58984375,0.3463134765625,7.0,2.0,-10.0,-558.0,803.0,-62.0,498,494.451169639051,33.49418394321849,
374,17.975000143051147,0.051000118255615234,19.607797671918096,20.80667577321731,101930.75,-530.0,796.0,-55.0,29.25,-28.875,17.25,-1.5625,-5.4375,0.875,240.875,-34.6875,-94.25,-0.05474853515625,0.72650146484375,0.5904541015625,0.3472900390625,27.0,-7.0,4.0,-558.0,804.0,-60.0,503,496.1609357112408,33.50029659653648,
