Index,Time,Difference,Hz,AveHz,0x6103 Pressure,0x6103 Acceleration-X,0x6103 Acceleration-Y,0x6103 Acceleration-Z,0x6103 Magnetic-X,0x6103 Magnetic-Y,0x6103 Magnetic-Z,0x6103 Angular-Vel-X,0x6103 Angular-Vel-Y,0x6103 Angular-Vel-Z,0x6103 Heading,0x6103 Roll,0x6103 Pitch,0x6103 Quaternion-X,0x6103 Quaternion-Y,0x6103 Quaternion-Z,0x6103 Quaternion-W,0x6103 Linear-Acceleration-X,0x6103 Linear-Acceleration-Y,0x6103 Linear-Acceleration-Z,0x6103 Gravity-X,0x6103 Gravity-Y,0x6103 Gravity-Z,0x6103 Range,0x6103 Smoothed Range,0x6103 Velocity,
0,0.0019998550415039062,0.0019998550415039062,500.0362422508345,0.0,103505.25,966.0,-21.0,80.0,-45.75,20.75,-6.5625,-4.25,-5.75,-4.5,340.375,88.375,0.9375,0.10736083984375,-0.69073486328125,0.12152099609375,0.7047119140625,-13.0,-5.0,58.0,980.0,-16.0,22.0,1743,1743.0,7000.507391511684,
1,0.03508567810058594,0.03308582305908203,30.224425676649467,28.50165805925523,103505.25,975.0,-32.0,66.0,-45.75,20.75,-6.5625,-5.0625,9.3125,-6.6875,340.8125,88.1875,0.75,0.1065673828125,-0.68896484375,0.1192626953125,0.7069091796875,-12.0,-23.0,33.0,980.0,-13.0,27.0,1738,1738.0,-151.12212838324734,
2,0.06917476654052734,0.034089088439941406,29.33489998601203,28.91227683187427,103502.25,936.0,-47.0,21.0,-45.75,22.25,-8.1875,9.9375,8.9375,-1.1875,340.75,87.8125,0.625,0.1080322265625,-0.68572998046875,0.1199951171875,0.709716796875,-46.0,-33.0,-17.0,979.0,-11.0,35.0,1762,1762.0,704.0375996642887,
3,0.1074984073638916,0.03832364082336426,26.09355422698627,27.90739019830066,103502.25,964.0,-7.0,46.0,-46.5,22.25,-7.875,10.1875,-2.3125,3.375,340.5625,87.75,0.625,0.1087646484375,-0.685546875,0.12115478515625,0.7095947265625,-29.0,-5.0,1.0,979.0,-11.0,35.0,1757,1757.0,-130.46777113493135,
4,0.1433727741241455,0.035874366760253906,27.87505649041657,27.899299741082135,103502.25,985.0,-12.0,59.0,-45.0,21.5,-9.0,-7.75,-10.5625,-5.0625,340.625,88.1875,0.625,0.10919189453125,-0.6883544921875,0.120361328125,0.7069091796875,5.0,-1.0,31.0,980.0,-11.0,27.0,1851,1851.0,2620.255310099157,
5,0.18354392051696777,0.040171146392822266,24.89348922784735,27.24143619639951,103502.25,980.0,-31.0,56.0,-45.0,21.5,-9.0,-2.4375,-4.0,-5.0,341.0625,88.5,0.4375,0.10919189453125,-0.68975830078125,0.11767578125,0.7060546875,5.0,-25.0,37.0,980.0,-8.0,24.0,1804,1804.0,-1169.9939937088254,
6,0.22064542770385742,0.03710150718688965,26.95308292902355,27.192949622563628,103502.25,967.0,-35.0,54.0,-46.1875,22.5625,-8.1875,0.8125,10.9375,-4.1875,341.125,88.25,0.375,0.1092529296875,-0.68792724609375,0.1175537109375,0.70782470703125,-16.0,-27.0,14.0,980.0,-6.0,29.0,1804,1804.0,0.0,
7,0.2576768398284912,0.03703141212463379,27.004101183999587,27.16580971987694,103502.25,984.0,-23.0,23.0,-46.1875,21.5,-8.1875,7.3125,10.1875,0.375,340.9375,87.75,0.3125,0.11004638671875,-0.68450927734375,0.11895751953125,0.71075439453125,18.0,-8.0,-27.0,979.0,-6.0,37.0,1799,1799.0,-135.02050591999793,
8,0.29401254653930664,0.03633570671081543,27.521138035340513,27.209723170539856,103502.25,991.0,-14.0,16.0,-46.1875,21.5,-8.1875,6.5625,3.5,-0.5,340.8125,87.625,0.3125,0.11077880859375,-0.6837158203125,0.119873046875,0.71124267578125,11.0,-8.0,-23.0,979.0,-6.0,39.0,1823,1823.0,660.5073128481723,
9,0.32886505126953125,0.03485250473022461,28.692342422459674,27.366848393457836,103502.25,977.0,-8.0,32.0,-46.1875,20.375,-7.875,-4.5625,-7.4375,-0.4375,340.9375,87.875,0.3125,0.1107177734375,-0.685546875,0.11907958984375,0.70965576171875,19.0,8.0,3.0,980.0,-6.0,34.0,1846,1846.0,659.9238757165725,
10,0.3650951385498047,0.03623008728027344,27.601368781258227,27.390120941410025,103502.25,1038.0,-2.0,48.0,-45.375,21.0625,-8.6875,-0.25,-6.625,-3.0625,341.0625,88.0625,0.25,0.111328125,-0.6865234375,0.1181640625,0.708740234375,58.0,2.0,16.0,980.0,-4.0,31.0,1374,1374.0,-13027.846064753883,
11,0.4010579586029053,0.035962820053100586,27.80649566756608,27.427457214211024,103502.25,982.0,-41.0,43.0,-45.75,18.5,-8.6875,-1.5,1.25,-4.125,341.125,88.125,0.0625,0.11309814453125,-0.68621826171875,0.11773681640625,0.7088623046875,2.0,-40.0,11.0,980.0,-1.0,32.0,1841,1841.0,12985.633476753359,
12,0.4381556510925293,0.03709769248962402,26.955854472072442,27.387527628773757,103502.25,988.0,3.0,45.0,-45.75,18.5,-8.6875,5.9375,1.1875,6.6875,340.9375,88.0625,0.1875,0.11260986328125,-0.68621826171875,0.118896484375,0.708740234375,8.0,6.0,13.0,980.0,-3.0,32.0,1799,1799.0,-1132.1458878270425,
13,0.4792649745941162,0.041109323501586914,24.325382050166738,27.124869725791136,103499.75,984.0,-2.0,45.0,-46.1875,20.75,-8.6875,0.75,-1.75,-2.625,340.5625,88.0,0.1875,0.11407470703125,-0.68548583984375,0.12115478515625,0.70880126953125,4.0,2.0,12.0,980.0,-4.0,33.0,1372,1372.0,-10386.938135421198,
14,0.5233824253082275,0.04411745071411133,22.666767544665536,26.74908312359781,103499.75,971.0,-18.0,43.0,-45.75,20.0,-7.875,-4.0,2.4375,-2.0,340.9375,88.0625,0.0625,0.11346435546875,-0.685791015625,0.11883544921875,0.708984375,-9.0,-15.0,10.0,980.0,-2.0,32.0,1513,1513.0,3196.0142237978407,
15,0.5725133419036865,0.049130916595458984,20.35378269520066,26.20026277487772,103499.75,992.0,-8.0,41.0,-45.0,19.25,-8.1875,5.75,6.4375,-0.125,340.75,87.875,0.125,0.11407470703125,-0.6844482421875,0.120361328125,0.7099609375,0.0,-10.0,8.0,979.0,-2.0,36.0,1233,1233.0,-5699.059154656185,
16,0.6176338195800781,0.0451204776763916,22.162885933347074,25.90531718434429,103499.75,961.0,-5.0,45.0,-45.75,19.25,-7.875,0.3125,-0.875,3.6875,340.625,87.75,0.1875,0.11376953125,-0.68426513671875,0.12127685546875,0.71002197265625,-5.0,10.0,18.0,979.0,-4.0,37.0,1475,1475.0,5363.418395869991,
17,0.6507220268249512,0.03308820724487305,30.222247841939158,26.124826422347496,103499.75,947.0,1.0,71.0,-46.875,20.375,-7.375,-2.625,-3.875,2.25,340.8125,87.875,0.3125,0.1116943359375,-0.68511962890625,0.11981201171875,0.70977783203125,-32.0,7.0,35.0,980.0,-5.0,35.0,1419,1419.0,-1692.4458791485927,
18,0.6908409595489502,0.04011893272399902,24.925887407812397,26.05520091303242,103499.75,994.0,5.0,68.0,-46.875,20.375,-7.875,-7.625,1.75,-2.125,341.0,87.8125,0.3125,0.11041259765625,-0.68511962890625,0.11846923828125,0.710205078125,14.0,10.0,32.0,979.0,-5.0,36.0,1378,1378.0,-1021.9613837203083,
19,0.7320499420166016,0.04120898246765137,24.266554040371897,25.95451335964878,103499.75,945.0,-38.0,66.0,-46.875,20.375,-7.875,-8.0625,7.75,-1.75,341.4375,87.6875,0.1875,0.108642578125,-0.684326171875,0.11590576171875,0.711669921875,-34.0,-34.0,28.0,979.0,-3.0,38.0,1583,1583.0,4974.643578276239,
20,0.7710413932800293,0.038991451263427734,25.646647344413054,25.93894461997624,103499.75,991.0,-7.0,43.0,-46.5,20.0,-7.375,-0.4375,14.375,6.4375,341.5625,87.3125,0.3125,0.1060791015625,-0.6815185546875,0.116455078125,0.71466064453125,11.0,0.0,-25.0,979.0,-7.0,47.0,1626,1626.0,1102.8058358097614,
21,0.8081402778625488,0.03709888458251953,26.95498830364258,25.985587620435062,103499.75,999.0,-3.0,13.0,-45.75,20.0,-8.6875,8.8125,4.0625,7.3125,341.0625,86.8125,0.5625,0.105712890625,-0.67974853515625,0.1192626953125,0.7159423828125,20.0,7.0,-38.0,979.0,-10.0,52.0,1504,1504.0,-3288.508573044395,
22,0.8502528667449951,0.04211258888244629,23.745868552309023,25.874655482459154,103504.25,993.0,17.0,84.0,-44.6875,21.875,-8.6875,-2.4375,-21.8125,6.3125,340.6875,87.3125,0.8125,0.1053466796875,-0.6832275390625,0.1209716796875,0.71234130859375,14.0,32.0,41.0,979.0,-14.0,43.0,1635,1635.0,3110.7087803524823,
23,0.8873512744903564,0.03709840774536133,26.955334764334648,25.91983655312816,103504.25,980.0,-34.0,63.0,-44.6875,21.875,-8.6875,-0.9375,0.1875,-11.0625,341.0625,87.6875,0.6875,0.10546875,-0.6854248046875,0.11846923828125,0.71063232421875,0.0,-22.0,25.0,979.0,-12.0,37.0,1602,1602.0,-889.5260472230434,
24,0.9615473747253418,0.03709769248962402,26.955854472072442,24.95976863007442,103504.25,995.0,-32.0,35.0,-46.1875,20.375,-8.1875,-1.6875,11.75,-10.375,342.0,87.375,0.0,0.1075439453125,-0.682373046875,0.11285400390625,0.71417236328125,15.0,-32.0,-8.0,979.0,0.0,44.0,1242,1242.0,-9704.107609946079,
25,0.9989063739776611,0.037358999252319336,26.76731229458502,25.027370583741096,103504.25,970.0,-43.0,32.0,-45.75,20.375,-8.1875,-0.1875,9.3125,-7.1875,342.25,87.0,-0.1875,0.10845947265625,-0.68011474609375,0.111572265625,0.71636962890625,-8.0,-47.0,-17.0,979.0,3.0,50.0,1738,1738.0,13276.58689811417,
26,1.0307323932647705,0.031826019287109375,31.42083183507132,25.224782077185793,103504.25,1007.0,-9.0,39.0,-45.75,20.375,-8.1875,3.4375,-5.375,2.5,342.125,87.0625,-0.125,0.1085205078125,-0.68048095703125,0.11224365234375,0.7159423828125,28.0,-11.0,-9.0,979.0,2.0,49.0,1415,1415.0,-10148.928682728036,
27,1.0668282508850098,0.03609585762023926,27.704009986987852,25.308666111533494,103504.25,961.0,2.0,76.0,-46.1875,19.5625,-9.0,6.75,-6.5625,3.1875,341.75,87.4375,0.0,0.109619140625,-0.6827392578125,0.1142578125,0.71331787109375,-18.0,1.0,33.0,979.0,0.0,42.0,1752,1752.0,9336.251365614906,
28,1.1039273738861084,0.03709912300109863,26.954815076636354,25.36398739840357,103504.25,993.0,28.0,66.0,-46.5,21.0625,-8.6875,4.9375,4.6875,3.125,341.4375,87.375,0.0625,0.1102294921875,-0.681884765625,0.11639404296875,0.713623046875,13.0,30.0,21.0,979.0,-1.0,44.0,1771,1771.0,512.1414864560908,
29,1.1370148658752441,0.03308749198913574,30.222901159397317,25.50538332467321,103504.25,1004.0,-6.0,58.0,-47.25,21.0625,-8.1875,-0.875,25.0,-9.4375,341.5625,86.875,0.0,0.110107421875,-0.67877197265625,0.1162109375,0.7166748046875,24.0,-6.0,5.0,979.0,0.0,53.0,1762,1762.0,-272.0061104345758,
30,1.1791276931762695,0.04211282730102539,23.74573411687444,25.44253703276839,103504.25,890.0,-44.0,34.0,-47.25,21.0625,-8.1875,-1.5,10.25,-1.1875,341.9375,85.9375,-0.3125,0.11090087890625,-0.6729736328125,0.1143798828125,0.7222900390625,-88.0,-50.0,-33.0,978.0,6.0,68.0,1776,1776.0,332.4402776362422,
31,1.2184081077575684,0.03928041458129883,25.457979775908324,25.443034893336574,103494.25,995.0,28.0,67.0,-45.75,20.0,-11.0625,5.875,-2.5,5.4375,341.3125,86.125,0.0,0.11114501953125,-0.673828125,0.118408203125,0.7208251953125,16.0,28.0,1.0,978.0,0.0,65.0,1729,1729.0,-1196.5250494676911,
32,1.2564942836761475,0.0380861759185791,26.2562458918902,25.467684505795788,103494.25,947.0,-7.0,66.0,-45.375,21.0625,-9.0,19.75,0.8125,-5.25,341.125,86.0625,-0.125,0.11358642578125,-0.67315673828125,0.1197509765625,0.7208251953125,-31.0,-10.0,0.0,978.0,2.0,66.0,1776,1776.0,1234.0435569188394,
33,1.2964377403259277,0.03994345664978027,25.035389620079386,25.454365430385973,103494.25,970.0,1.0,77.0,-45.375,21.0625,-9.875,-2.6875,-2.3125,-3.25,341.0,86.125,-0.3125,0.11639404296875,-0.67303466796875,0.1202392578125,0.720458984375,-7.0,-4.0,11.0,978.0,5.0,65.0,1644,1644.0,-3304.671429850479,
34,1.330676794052124,0.03423905372619629,29.206414639750992,25.550907742566512,103494.25,980.0,-35.0,108.0,-45.375,21.0625,-9.875,-3.9375,1.3125,-4.9375,341.3125,86.1875,-0.4375,0.11590576171875,-0.67352294921875,0.11822509765625,0.72039794921875,1.0,-43.0,44.0,978.0,7.0,64.0,1055,1055.0,-17202.578222813332,
35,1.36863112449646,0.03795433044433594,26.34745464596211,25.572997262412127,103494.25,944.0,-52.0,84.0,-46.1875,18.875,-9.0,9.0,15.125,1.4375,341.375,85.875,-0.5,0.1160888671875,-0.6715087890625,0.11834716796875,0.72222900390625,-33.0,-60.0,14.0,978.0,8.0,69.0,1130,1130.0,1976.0590984471582,
36,1.4047269821166992,0.03609585762023926,27.704009986987852,25.627755754896764,103494.25,950.0,37.0,70.0,-46.1875,19.5625,-9.875,16.9375,12.0,17.875,340.25,85.3125,0.0,0.11651611328125,-0.6678466796875,0.12591552734375,0.72430419921875,-27.0,36.0,-8.0,977.0,0.0,79.0,1363,1363.0,6455.03432696817,
37,1.4408230781555176,0.03609609603881836,27.703826999035655,25.679766350887352,103494.25,984.0,23.0,70.0,-46.1875,20.0,-10.6875,5.9375,0.8125,-2.25,339.5625,85.125,0.1875,0.11737060546875,-0.66650390625,0.1304931640625,0.72454833984375,7.0,26.0,-11.0,977.0,-3.0,82.0,1107,1107.0,-7092.179711753128,
38,1.47892427444458,0.0381011962890625,26.245895074088907,25.69435139893904,103494.25,974.0,-46.0,81.0,-46.1875,20.0,-10.6875,-4.375,-8.5625,-8.875,339.8125,85.3125,0.0,0.1185302734375,-0.66729736328125,0.12847900390625,0.7239990234375,-2.0,-46.0,2.0,977.0,0.0,79.0,1799,1799.0,18162.159391269524,
39,1.520033359527588,0.04110908508300781,24.32552312903076,25.657331633906267,103494.25,990.0,-18.0,106.0,-46.875,20.375,-9.875,18.5,-15.875,10.8125,339.4375,86.0,0.125,0.12005615234375,-0.67144775390625,0.13037109375,0.71954345703125,12.0,-16.0,38.0,978.0,-2.0,68.0,1748,1748.0,-1240.6016795805688,
40,1.5621447563171387,0.04211139678955078,23.7465407523156,25.605821636083643,103494.25,950.0,23.0,117.0,-46.1875,20.0,-10.6875,1.0625,-7.125,15.0,338.5625,86.375,0.6875,0.11865234375,-0.67449951171875,0.1353759765625,0.7159423828125,-28.0,36.0,57.0,978.0,-12.0,60.0,1799,1799.0,1211.0735783680957,
41,1.6034235954284668,0.041278839111328125,24.225487478051935,25.570286053476707,103503.0,973.0,17.0,81.0,-45.75,21.0625,-10.25,0.5,15.875,-5.375,338.625,85.875,0.6875,0.11822509765625,-0.67144775390625,0.13555908203125,0.7188720703125,-1.0,12.0,-6.0,978.0,-11.0,68.0,1766,1766.0,-799.4410867757139,
42,1.6473710536956787,0.043947458267211914,22.754444498695268,25.49516692415959,103503.0,925.0,-47.0,41.0,-45.75,21.0625,-11.5,-16.25,-5.75,-3.375,339.375,85.8125,0.375,0.1165771484375,-0.6712646484375,0.1307373046875,0.72021484375,-52.0,-39.0,-30.0,978.0,-7.0,71.0,1386,1386.0,-8646.688909504202,
43,1.6834683418273926,0.03609728813171387,27.702912095533115,25.54250586816727,103503.0,961.0,-24.0,63.0,-45.75,21.0625,-11.5,-4.625,-6.0,-5.375,339.75,86.0625,0.3125,0.11572265625,-0.67266845703125,0.12823486328125,0.71954345703125,-16.0,-18.0,-3.0,978.0,-5.0,66.0,1780,1780.0,10914.947365640046,
44,1.720895767211914,0.037427425384521484,26.718375355136256,25.568079623605563,103503.0,926.0,-47.0,73.0,-45.75,21.0625,-10.25,-2.8125,2.6875,-4.25,339.9375,86.125,0.125,0.1165771484375,-0.6728515625,0.126953125,0.71942138671875,-76.0,-54.0,-15.0,978.0,-3.0,66.0,1818,1818.0,1015.2982634951778,
45,1.755659580230713,0.03476381301879883,28.765544201357933,25.631392615467348,103503.0,910.0,-19.0,51.0,-45.375,19.5625,-9.5,17.25,-7.0625,6.875,339.5625,86.25,0.3125,0.11700439453125,-0.67364501953125,0.12908935546875,0.71826171875,-18.0,19.0,-15.0,978.0,-5.0,63.0,1771,1771.0,-1351.9805774638228,
46,1.7975406646728516,0.04188108444213867,23.877127665630585,25.59051981634691,103503.0,993.0,33.0,58.0,-45.375,19.5625,-9.5,26.625,-11.75,3.1875,339.0625,86.4375,0.375,0.119873046875,-0.6744384765625,0.13238525390625,0.7164306640625,14.0,40.0,-1.0,978.0,-6.0,60.0,1762,1762.0,-214.89414899067526,
47,1.8358879089355469,0.03834724426269531,26.07749316090525,25.600691508040235,103503.0,1003.0,39.0,94.0,-46.1875,20.0,-8.6875,-7.0625,-11.4375,-13.3125,339.0,87.25,0.0625,0.12445068359375,-0.67889404296875,0.1317138671875,0.7115478515625,40.0,26.0,50.0,979.0,-1.0,46.0,1266,1266.0,-12934.436607809002,
48,1.8699631690979004,0.034075260162353516,29.346804550733967,25.668954765112275,103503.0,1041.0,-5.0,95.0,-45.75,19.25,-9.875,-2.4375,10.9375,-22.6875,340.0,87.125,-0.6875,0.1278076171875,-0.6778564453125,0.12542724609375,0.7130126953125,67.0,-33.0,39.0,979.0,12.0,47.0,1069,1069.0,-5781.320496494592,
49,1.907144546508789,0.03718137741088867,26.895184353959603,25.692861136141566,103503.0,1018.0,-34.0,58.0,-46.5,20.375,-9.5,0.9375,17.125,-10.6875,340.625,86.25,-1.3125,0.130859375,-0.67266845703125,0.1221923828125,0.71795654296875,47.0,-55.0,14.0,979.0,18.0,53.0,1223,1223.0,4141.8583905097785,
50,1.9442055225372314,0.03706097602844238,26.982559747820773,25.71744572289296,103503.0,990.0,-29.0,30.0,-46.5,20.375,-9.5,3.8125,4.375,-4.125,340.6875,86.0625,-1.4375,0.1317138671875,-0.6715087890625,0.1219482421875,0.71893310546875,12.0,-54.0,-31.0,978.0,25.0,62.0,1799,1799.0,15541.954414744765,
51,1.9822628498077393,0.03805732727050781,26.276148950032578,25.728172227485633,103499.75,952.0,-5.0,56.0,-46.5,18.5,-9.5,3.875,-12.5625,10.0,340.25,86.5625,-1.1875,0.1318359375,-0.67437744140625,0.12445068359375,0.7158203125,-20.0,-1.0,31.0,978.0,20.0,54.0,1776,1776.0,-604.3514258507493,
52,2.018357515335083,0.03609466552734375,27.704924963009933,25.763522866942175,103499.75,970.0,21.0,65.0,-46.5,18.5,-10.6875,6.875,-6.625,1.75,339.875,86.8125,-1.0,0.13250732421875,-0.67572021484375,0.12640380859375,0.71405029296875,-6.0,-2.0,13.0,979.0,17.0,50.0,1776,1776.0,0.0,
53,2.0546350479125977,0.03627753257751465,27.56527053937,25.79533530971607,103499.75,980.0,23.0,89.0,-46.875,18.875,-10.6875,4.8125,-12.0625,4.25,339.6875,87.0625,-0.9375,0.13299560546875,-0.67694091796875,0.12725830078125,0.712646484375,1.0,6.0,42.0,979.0,16.0,47.0,1405,1405.0,-10226.71537010627,
54,2.092759370803833,0.03812432289123535,26.22997404709046,25.80325323272044,103499.75,973.0,32.0,107.0,-46.875,18.875,-10.6875,1.1875,12.625,-0.625,339.625,87.0,-0.875,0.13262939453125,-0.67669677734375,0.1280517578125,0.71282958984375,-5.0,17.0,59.0,979.0,15.0,48.0,1752,1752.0,9101.80099434039,
55,2.1231257915496826,0.03036642074584961,32.931111913697535,25.905200821782284,103499.75,976.0,13.0,31.0,-46.5,19.25,-9.0,6.8125,14.8125,0.625,339.4375,86.3125,-0.9375,0.133544921875,-0.6717529296875,0.12994384765625,0.71697998046875,6.0,4.0,-35.0,978.0,16.0,60.0,1729,1729.0,-757.4155740150433,
56,2.159881591796875,0.03675580024719238,27.206590341517206,25.927347227128223,103499.75,1012.0,49.0,44.0,-46.5,19.25,-11.0,-5.875,-4.25,1.875,339.3125,86.3125,-0.8125,0.13238525390625,-0.67181396484375,0.1304931640625,0.717041015625,34.0,34.0,-16.0,978.0,14.0,61.0,1762,1762.0,897.8174812700678,
57,2.19687819480896,0.03699660301208496,27.02950861930079,25.945908214067693,103499.75,938.0,8.0,57.0,-47.25,19.25,-9.5,-1.75,-9.5,-0.9375,339.5,86.5,-0.8125,0.132080078125,-0.6732177734375,0.12921142578125,0.71600341796875,-40.0,-6.0,0.0,978.0,14.0,57.0,1762,1762.0,0.0,
58,2.2359366416931152,0.03905844688415527,25.602656525640477,25.93991212384298,103499.75,1000.0,33.0,86.0,-47.25,19.25,-9.5,0.25,-6.75,0.375,339.375,86.875,-0.75,0.1324462890625,-0.6754150390625,0.12945556640625,0.7137451171875,21.0,19.0,35.0,979.0,13.0,51.0,1757,1757.0,-128.01328262820238,
59,2.2741482257843018,0.03821158409118652,26.17007443642331,25.943779447204786,103499.75,960.0,3.0,66.0,-46.5,19.5625,-9.875,-6.625,-3.3125,-1.8125,339.6875,86.9375,-0.8125,0.1317138671875,-0.6763916015625,0.12774658203125,0.71331787109375,-40.0,-14.0,35.0,979.0,14.0,49.0,1771,1771.0,366.3810421099263,
60,2.3122751712799072,0.03812694549560547,26.228169789139297,25.94846873989845,103499.75,990.0,27.0,77.0,-46.875,18.0625,-10.6875,1.25,10.0,1.875,339.5625,86.6875,-0.75,0.13104248046875,-0.6746826171875,0.12847900390625,0.71490478515625,38.0,17.0,0.0,979.0,13.0,54.0,1780,1780.0,236.0535281022537,
61,2.346397638320923,0.034122467041015625,29.306204583566238,25.99729858390561,103503.25,973.0,-6.0,48.0,-46.875,17.375,-9.875,0.375,6.75,-2.1875,339.625,86.4375,-0.875,0.13134765625,-0.6728515625,0.1285400390625,0.71661376953125,-5.0,-21.0,-10.0,978.0,15.0,58.0,1724,1724.0,-1641.1474566797094,
62,2.3880085945129395,0.0416109561920166,24.03213219579554,25.963055636592287,103503.25,983.0,41.0,69.0,-46.875,17.375,-9.875,-0.5,-6.25,7.875,339.4375,86.5625,-0.625,0.130126953125,-0.6739501953125,0.1295166015625,0.71563720703125,4.0,30.0,13.0,978.0,11.0,56.0,1369,1369.0,-8531.406929507417,
63,2.4224326610565186,0.0344240665435791,29.04944419434152,26.006914872309892,103503.25,1015.0,37.0,54.0,-47.25,18.0625,-10.25,1.4375,-5.1875,-4.0625,339.5,86.75,-0.6875,0.13079833984375,-0.675048828125,0.129150390625,0.71453857421875,-8.0,-5.0,21.0,979.0,12.0,53.0,1710,1710.0,9905.860470270458,
64,2.4617981910705566,0.039365530014038086,25.402934995245623,25.99725689625617,103503.25,973.0,3.0,75.0,-45.75,18.5,-10.6875,-7.8125,-2.25,-0.75,339.6875,86.875,-0.75,0.1300048828125,-0.6759033203125,0.12725830078125,0.71417236328125,1.0,-3.0,20.0,979.0,13.0,51.0,1729,1729.0,482.65576490966686,
65,2.4996862411499023,0.0378880500793457,26.393546194797185,26.003263501622023,103503.25,1007.0,4.0,55.0,-45.375,18.5,-10.25,-0.1875,12.375,-4.625,339.9375,86.5625,-0.8125,0.12933349609375,-0.67425537109375,0.1263427734375,0.71600341796875,28.0,-10.0,0.0,978.0,14.0,56.0,1715,1715.0,-369.5096467271606,
66,2.5377399921417236,0.03805375099182129,26.27861837365061,26.00739248479879,103503.25,947.0,-15.0,52.0,-45.375,18.5,-10.25,-0.9375,7.0,1.5,340.0,86.1875,-0.9375,0.1298828125,-0.671875,0.1265869140625,0.71807861328125,-30.0,-31.0,-9.0,978.0,16.0,62.0,1724,1724.0,236.50756536285547,
67,2.5768444538116455,0.039104461669921875,25.572529509316166,26.000793296193798,103503.25,974.0,30.0,59.0,-46.1875,17.375,-11.0625,4.625,-0.375,4.625,339.75,86.125,-0.8125,0.12908935546875,-0.6712646484375,0.12811279296875,0.71856689453125,-4.0,17.0,-4.0,978.0,13.0,64.0,1752,1752.0,716.0308262608526,
68,2.614034652709961,0.03719019889831543,26.888804836300462,26.013427147763565,103503.25,989.0,20.0,75.0,-46.1875,18.5,-10.6875,-3.1875,-10.1875,-1.0,339.75,86.3125,-0.6875,0.12908935546875,-0.673095703125,0.1275634765625,0.7169189453125,11.0,7.0,16.0,978.0,13.0,59.0,1738,1738.0,-376.44326770820646,
69,2.6532442569732666,0.039209604263305664,25.50395544123996,26.0058981824436,103503.25,960.0,-24.0,73.0,-46.875,18.5,-9.875,-0.8125,-3.8125,-2.1875,339.9375,86.5625,-0.8125,0.12921142578125,-0.6741943359375,0.12628173828125,0.716064453125,-5.0,-34.0,16.0,978.0,14.0,56.0,1757,1757.0,484.5751533835592,
70,2.6882126331329346,0.03496837615966797,28.59726729757002,26.039606814294157,103503.25,941.0,20.0,103.0,-46.875,18.5,-9.875,4.625,-8.375,10.25,339.5625,86.875,-0.625,0.12933349609375,-0.676025390625,0.12835693359375,0.7139892578125,-37.0,9.0,52.0,979.0,10.0,51.0,1757,1757.0,0.0,
71,2.7272579669952393,0.03904533386230469,25.6112549460212,26.03347422914465,103496.0,969.0,19.0,73.0,-46.5,18.875,-9.875,-4.5625,7.8125,-4.0625,339.5625,86.8125,-0.5,0.12823486328125,-0.675537109375,0.128662109375,0.714599609375,-9.0,10.0,19.0,979.0,9.0,53.0,1766,1766.0,230.50129451419082,
72,2.764341354370117,0.03708338737487793,26.96625283690907,26.045987369170593,103496.0,956.0,-19.0,44.0,-46.875,18.0625,-9.5,-1.0625,5.875,-3.625,339.875,86.4375,-0.6875,0.128173828125,-0.67340087890625,0.12689208984375,0.7169189453125,-22.0,-32.0,-14.0,978.0,12.0,58.0,1771,1771.0,134.83126418454535,
73,2.802443265914917,0.038101911544799805,26.24540238156322,26.04869860805821,103496.0,908.0,2.0,79.0,-47.25,19.5625,-9.875,4.5,-4.5625,4.9375,339.6875,86.5,-0.625,0.12872314453125,-0.67364501953125,0.12811279296875,0.7164306640625,-70.0,-9.0,21.0,978.0,11.0,58.0,1780,1780.0,236.208621434069,
74,2.843376874923706,0.04093360900878906,24.429802898280602,26.02539278300404,103496.0,1033.0,25.0,41.0,-45.75,19.25,-11.0625,-2.4375,-0.0625,-5.375,339.75,86.5,-0.625,0.12847900390625,-0.67352294921875,0.1278076171875,0.71661376953125,54.0,13.0,-17.0,978.0,11.0,58.0,1762,1762.0,-439.73645216905084,
75,2.882321357727051,0.03894448280334473,25.677578132174233,26.020693285617437,103496.0,968.0,-24.0,77.0,-45.75,19.25,-11.0625,5.75,-10.125,-3.0,339.8125,86.6875,-0.8125,0.1302490234375,-0.6748046875,0.12725830078125,0.7152099609375,-10.0,-39.0,22.0,979.0,14.0,54.0,1780,1780.0,462.1964063791362,
76,2.9178030490875244,0.03548169136047363,28.183549364672995,26.04699450971074,103496.0,936.0,-2.0,91.0,-46.5,18.875,-9.5,-4.1875,-1.625,5.8125,339.6875,86.875,-0.6875,0.12969970703125,-0.67608642578125,0.12786865234375,0.7139892578125,-43.0,-14.0,40.0,979.0,12.0,51.0,1776,1776.0,-112.73419745869198,
77,2.951868772506714,0.03406572341918945,29.355020226480594,26.085170423958903,103496.0,1017.0,26.0,58.0,-45.75,18.5,-10.25,2.5625,13.375,-4.625,339.6875,86.4375,-0.6875,0.129150390625,-0.67327880859375,0.12823486328125,0.71661376953125,38.0,14.0,0.0,978.0,12.0,58.0,1794,1794.0,528.3903640766507,
78,3.020022392272949,0.030080080032348633,33.244592398842784,25.827623066494922,103496.0,964.0,-13.0,62.0,-46.1875,19.25,-10.6875,-0.9375,-2.125,0.375,340.0625,86.1875,-0.875,0.12933349609375,-0.6719970703125,0.126220703125,0.71820068359375,-9.0,-34.0,-4.0,978.0,15.0,62.0,1762,1762.0,-1063.826956762969,
79,3.055166721343994,0.03514432907104492,28.45409277777024,25.857835989142753,103496.0,940.0,22.0,63.0,-47.25,17.75,-9.875,8.3125,-1.375,7.0625,339.5625,86.25,-0.6875,0.12982177734375,-0.67193603515625,0.129150390625,0.71759033203125,-37.0,9.0,1.0,978.0,12.0,62.0,1766,1766.0,113.81637111108095,
80,3.0922155380249023,0.0370488166809082,26.991415369962805,25.871417763814282,103492.75,997.0,76.0,37.0,-46.5,18.875,-10.25,-2.8125,-1.9375,-2.5625,339.4375,86.5,-0.5625,0.12939453125,-0.67327880859375,0.1297607421875,0.71630859375,18.0,66.0,-20.0,978.0,10.0,58.0,1762,1762.0,-107.96566147985122,
81,3.128274917602539,0.03605937957763672,27.73203565100103,25.89286496024369,103492.75,1.0,3.0,14.0,-46.5,18.875,-10.25,56.9375,-21.75,-104.3125,340.3125,86.0,-2.4375,0.146240234375,-0.67205810546875,0.12396240234375,0.71527099609375,-976.0,-38.0,-38.0,978.0,41.0,52.0,1644,1644.0,-3272.3802068181217,
82,3.166428565979004,0.038153648376464844,26.209813282675533,25.896684005769462,103492.75,20.0,15.0,3.0,-46.1875,16.6875,-9.875,56.4375,-26.0625,-106.5625,342.375,83.0,-73.375,0.185302734375,-0.66961669921875,0.10992431640625,0.71075439453125,-953.0,-98.0,-30.0,973.0,113.0,33.0,1424,1424.0,-5766.158922188617,
83,3.201505184173584,0.03507661819458008,28.509019725126088,25.925305512639703,103492.75,21.0,14.0,7.0,-48.75,14.75,-11.0625,54.3125,-30.0625,-106.25,344.5625,79.125,-86.9375,0.2237548828125,-0.66705322265625,0.09527587890625,0.7042236328125,-941.0,-170.0,-2.0,963.0,184.0,9.0,1341,1341.0,-2366.248637185465,
84,3.27099347114563,0.034395456314086914,29.07360759713028,25.680271373510237,103492.75,23.0,15.0,0.0,-49.1875,8.875,-10.25,49.75,-38.0,-105.5625,348.8125,71.8125,-98.1875,0.288818359375,-0.6624755859375,0.0672607421875,0.6878662109375,-908.0,-287.0,44.0,931.0,302.0,-43.0,1219,1219.0,-3546.980126849894,
85,3.306783437728882,0.03578996658325195,27.940791665001267,25.704737428580597,103492.75,23.0,17.0,-1.0,-51.0,4.5,-8.6875,47.0625,-42.3125,-105.4375,350.875,68.625,-101.375,0.31549072265625,-0.66070556640625,0.053955078125,0.678955078125,-889.0,-332.0,69.0,913.0,350.0,-70.0,1214,1214.0,-139.70395832500634,
86,3.3418776988983154,0.035094261169433594,28.494687355634664,25.734035697461575,103492.75,25.0,17.0,-8.0,-50.25,0.0,-7.0,43.0,-50.875,-105.3125,354.0,64.1875,-105.0625,0.3497314453125,-0.65899658203125,0.03460693359375,0.6650390625,-857.0,-393.0,102.0,883.0,411.0,-110.0,1200,1200.0,-398.9256229788853,
87,3.381983757019043,0.04010605812072754,24.933888964848975,25.724546967275728,103492.75,26.0,18.0,-33.0,-50.25,0.0,-7.0,38.25,-63.625,-105.375,357.6875,59.625,-108.4375,0.38250732421875,-0.65850830078125,0.01287841796875,0.64801025390625,-819.0,-451.0,123.0,846.0,469.0,-156.0,1158,1158.0,-1047.223336523657,
88,3.4183709621429443,0.03638720512390137,27.48218766994935,25.743256356482046,103492.75,28.0,20.0,-60.0,-49.875,-6.25,-5.75,36.25,-83.3125,-105.4375,1.9375,54.8125,-111.9375,0.41510009765625,-0.6597900390625,-0.01068115234375,0.6263427734375,-773.0,-503.0,150.0,801.0,523.0,-211.0,859,859.0,-8217.174113314855,
89,3.453174114227295,0.034803152084350586,28.73302962836102,25.77338907798318,103492.75,34.0,23.0,-97.0,-51.0,-9.25,-1.375,38.375,-104.8125,-105.6875,5.9375,50.875,-114.8125,0.4378662109375,-0.66387939453125,-0.0316162109375,0.60546875,-726.0,-537.0,162.0,761.0,561.0,-259.0,859,859.0,0.0,
90,3.4862618446350098,0.033087730407714844,30.22268338377288,25.815616844300013,103491.75,40.0,27.0,-149.0,-51.0,-9.25,-1.375,46.1875,-135.625,-106.1875,10.6875,46.5,-118.1875,0.46087646484375,-0.67095947265625,-0.05438232421875,0.57830810546875,-671.0,-566.0,168.0,711.0,594.0,-318.0,644,644.0,-6497.876927511169,
91,3.521805763244629,0.03554391860961914,28.134208019747522,25.839017287586575,103491.75,59.0,32.0,-262.0,-50.25,-14.875,2.1875,68.25,-198.375,-107.125,19.125,39.5,-123.8125,0.49212646484375,-0.68743896484375,-0.08880615234375,0.52667236328125,-564.0,-595.0,158.0,624.0,628.0,-421.0,475,475.0,-4754.681155337331,
92,3.5534393787384033,0.031633615493774414,31.611941423414052,25.8904093173705,103491.75,74.0,33.0,-303.0,-49.875,-19.25,8.1875,86.3125,-242.8125,-107.0,24.8125,35.25,-127.25,0.5078125,-0.69964599609375,-0.1080322265625,0.49090576171875,-491.0,-603.0,181.0,566.0,637.0,-485.0,541,541.0,2086.3881339453274,
93,3.591541290283203,0.038101911544799805,26.24540238156322,25.894175364657073,103491.75,129.0,46.0,-439.0,-49.875,-19.25,8.1875,127.4375,-352.5,-102.3125,42.1875,24.25,-135.25,0.53619384765625,-0.73223876953125,-0.15130615234375,0.39166259765625,-186.0,-565.0,186.0,350.0,620.0,-673.0,335,335.0,-5406.552890602024,
94,3.627638816833496,0.03609752655029297,27.702729122083962,25.91217173104653,103491.75,201.0,64.0,-523.0,-45.25,-22.1875,19.0625,159.1875,-480.1875,-89.1875,288.875,9.125,-143.4375,0.550537109375,-0.7705078125,-0.20343017578125,0.2486572265625,68.0,-509.0,244.0,156.0,575.0,-778.0,16,16.0,-8837.170589944784,
95,3.7048423290252686,0.04110908508300781,24.32552312903076,25.64211687383581,103491.75,-3480.0,3352.0,-3916.0,-16.0625,-16.5,53.5,970.125,275.6875,-134.8125,294.0,-20.1875,-175.875,0.53570556640625,-0.8251953125,-0.12451171875,-0.12884521484375,-3141.0,3286.0,-2998.0,-339.0,66.0,-917.0,0,0.0,-389.20837006449216,
96,3.7384934425354004,0.033651113510131836,29.716698667309043,25.678793202561828,103491.75,-171.0,-444.0,138.0,-16.0625,-16.5,53.5,447.0,-185.125,-293.5,286.875,-25.4375,158.9375,0.5714111328125,-0.77117919921875,0.00225830078125,-0.2806396484375,250.0,-126.0,964.0,-421.0,-317.0,-826.0,0,0.0,0.0,
97,3.7761240005493164,0.037630558013916016,26.57414752208016,25.687715759834507,103491.75,42.0,-100.0,144.0,8.0625,23.375,50.1875,217.9375,-150.375,-78.4375,18.75,-28.875,142.125,0.57354736328125,-0.71875,0.06402587890625,-0.3876953125,498.0,438.0,844.0,-474.0,-526.0,-677.0,0,0.0,0.0,
98,3.8131730556488037,0.037049055099487305,26.99124167444255,25.700380908446732,103491.75,-221.0,-308.0,300.0,7.875,40.1875,40.25,-116.625,41.4375,-48.25,18.6875,-29.125,140.0625,0.5831298828125,-0.70343017578125,0.066162109375,-0.40093994140625,-27.0,-81.0,905.0,-477.0,-549.0,-656.0,0,0.0,0.0,
99,3.8482699394226074,0.03509688377380371,28.49255809845999,25.725846044691426,103479.0,-456.0,-698.0,150.0,7.75,45.1875,36.0,-322.25,198.1875,-40.5625,278.625,-24.8125,148.125,0.61309814453125,-0.71380615234375,0.0477294921875,-0.335205078125,-44.0,-229.0,906.0,-411.0,-469.0,-755.0,0,0.0,0.0,
100,3.8899574279785156,0.0416874885559082,23.988012582213326,25.707222212960502,103479.0,-252.0,-1.0,-2374.0,7.75,45.1875,36.0,-641.75,-21.1875,29.1875,275.375,-20.6875,171.375,0.660400390625,-0.72552490234375,-0.068603515625,-0.18115234375,93.0,135.0,-1467.0,-346.0,-137.0,-907.0,0,0.0,0.0,
101,3.9254307746887207,0.03547334671020508,28.19017918352533,25.72966020729511,103479.0,-336.0,219.0,-1305.0,1.75,36.1875,47.5625,167.6875,-2.75,-21.3125,275.3125,-21.375,172.0625,0.6600341796875,-0.724853515625,-0.0767822265625,-0.18170166015625,80.0,-160.0,233.0,-357.0,-126.0,-904.0,0,0.0,0.0,
102,3.9635303020477295,0.03809952735900879,26.24704476192264,25.73463357837896,103479.0,-440.0,-222.0,-392.0,0.875,19.5625,54.5625,-41.75,8.5,2.6875,275.5625,-21.8125,171.0,0.65765380859375,-0.72509765625,-0.07293701171875,-0.19073486328125,33.0,94.0,-120.0,-365.0,-142.0,-898.0,0,0.0,0.0,
103,3.99762225151062,0.034091949462890625,29.332438178359627,25.765315860216255,103479.0,-380.0,-154.0,-798.0,2.5,21.375,55.5,11.3125,-2.125,-0.75,275.5,-21.75,171.1875,0.658203125,-0.7249755859375,-0.07391357421875,-0.18890380859375,-16.0,-15.0,101.0,-364.0,-136.0,-900.0,0,0.0,0.0,
104,4.033718824386597,0.03609657287597656,27.703461030383092,25.782659755868128,103479.0,-333.0,-88.0,-940.0,2.5,21.375,55.5,1.4375,0.4375,-0.375,275.5,-21.75,171.1875,0.65814208984375,-0.72503662109375,-0.073974609375,-0.1888427734375,19.0,31.0,0.0,-364.0,-138.0,-899.0,0,0.0,0.0,
105,4.068850040435791,0.035131216049194336,28.464713507203886,25.80581711208852,103479.0,-351.0,-111.0,-904.0,0.875,22.375,53.875,-1.5,-0.125,0.375,275.5,-21.75,171.25,0.65814208984375,-0.72509765625,-0.07403564453125,-0.18865966796875,12.0,27.0,-4.0,-363.0,-138.0,-900.0,0,0.0,0.0,
106,4.1050262451171875,0.036176204681396484,27.642479602462203,25.822002995981816,103479.0,-350.0,-119.0,-898.0,2.75,21.875,54.25,0.375,0.3125,-0.1875,275.5,-21.75,171.25,0.65814208984375,-0.72515869140625,-0.07403564453125,-0.18853759765625,12.0,18.0,1.0,-363.0,-138.0,-900.0,0,0.0,0.0,
107,4.144102096557617,0.03907585144042969,25.591252989700784,25.81982719221173,103479.0,-350.0,-116.0,-893.0,2.0,22.25,55.25,0.1875,0.125,0.125,275.5,-21.6875,171.3125,0.65814208984375,-0.7252197265625,-0.07421875,-0.18804931640625,14.0,26.0,-3.0,-363.0,-137.0,-900.0,0,0.0,0.0,
108,4.182249069213867,0.03814697265625,26.2144,25.823426154841762,103479.0,-347.0,-110.0,-906.0,2.0,22.25,55.25,-0.5,0.0,0.125,275.5,-21.6875,171.375,0.65814208984375,-0.725341796875,-0.07440185546875,-0.1876220703125,20.0,31.0,5.0,-362.0,-136.0,-900.0,0,0.0,0.0,
109,4.221217155456543,0.03896808624267578,25.66202491373192,25.821936182340558,103479.0,-343.0,-109.0,-911.0,1.25,21.5,54.0,0.0,-0.0625,0.0625,275.5625,-21.6875,171.375,0.65814208984375,-0.72540283203125,-0.074462890625,-0.18731689453125,24.0,33.0,-1.0,-362.0,-135.0,-900.0,0,0.0,0.0,
110,4.258314847946167,0.03709769248962402,26.955854472072442,25.83181467970933,103477.5,-347.0,-119.0,-895.0,1.25,21.5,54.375,15.875,-0.125,-0.0625,275.5625,-21.625,171.4375,0.65814208984375,-0.7254638671875,-0.0745849609375,-0.18701171875,14.0,15.0,5.0,-362.0,-135.0,-901.0,0,0.0,0.0,
111,4.29140305519104,0.03308820724487305,30.222247841939158,25.86566644345613,103477.5,-349.0,-112.0,-896.0,1.25,21.5,54.375,0.25,-0.1875,0.1875,275.5625,-21.625,171.5,0.65814208984375,-0.72552490234375,-0.07470703125,-0.1866455078125,12.0,21.0,4.0,-362.0,-134.0,-901.0,0,0.0,0.0,
112,4.3295087814331055,0.03810572624206543,26.24277500046926,25.868985525634393,103477.5,-347.0,-113.0,-898.0,0.875,21.75,54.375,-0.125,0.125,-15.875,275.5625,-21.625,171.5,0.65814208984375,-0.72564697265625,-0.07476806640625,-0.1864013671875,14.0,20.0,2.0,-361.0,-134.0,-901.0,0,0.0,0.0,
113,4.3656005859375,0.03609180450439453,27.707121152067643,25.88418197578503,103477.5,-346.0,-113.0,-906.0,1.25,21.0625,53.1875,0.0,0.125,-0.0625,275.5625,-21.625,171.5,0.65814208984375,-0.7257080078125,-0.07489013671875,-0.18609619140625,14.0,20.0,-4.0,-361.0,-133.0,-901.0,0,0.0,0.0,
114,4.400694131851196,0.03509354591369629,28.49526811736971,25.905004207153283,103477.5,-349.0,-113.0,-892.0,0.5,21.5,54.75,0.0625,-0.25,0.0625,275.5625,-21.5625,171.5625,0.65814208984375,-0.72576904296875,-0.07501220703125,-0.185791015625,14.0,20.0,4.0,-361.0,-133.0,-901.0,0,0.0,0.0,
115,4.434969663619995,0.03427553176879883,29.17533145059195,25.93027883445149,103477.5,-350.0,-112.0,-889.0,0.5,21.5,54.75,-0.1875,0.375,0.0,275.5625,-21.5625,171.625,0.65814208984375,-0.72576904296875,-0.0750732421875,-0.18560791015625,11.0,19.0,12.0,-361.0,-132.0,-902.0,0,0.0,0.0,
116,4.470722913742065,0.03575325012207031,27.96948519605228,25.946586768649944,103477.5,-345.0,-109.0,-906.0,1.6875,21.5,54.0,0.125,-0.1875,0.0625,277.5625,-21.5625,171.625,0.64556884765625,-0.737060546875,-0.07196044921875,-0.1866455078125,15.0,23.0,-3.0,-360.0,-132.0,-902.0,0,0.0,0.0,
117,4.504970073699951,0.03424715995788574,29.199501542017362,25.971315699308832,103477.5,-346.0,-113.0,-903.0,1.25,22.5625,54.0,0.125,-0.0625,0.0625,279.5625,-21.5625,171.625,0.63238525390625,-0.7484130859375,-0.0687255859375,-0.187744140625,14.0,18.0,-1.0,-360.0,-131.0,-902.0,0,0.0,0.0,
118,4.5398173332214355,0.034847259521484375,28.69666119321292,25.99223522420178,103477.5,-349.0,-113.0,-895.0,1.25,22.5625,54.0,-0.3125,-0.0625,0.0,279.5625,-21.5625,171.6875,0.63238525390625,-0.7484130859375,-0.06878662109375,-0.1875,11.0,18.0,6.0,-360.0,-131.0,-902.0,0,0.0,0.0,
119,4.577200651168823,0.037383317947387695,26.749899551649584,25.99842328730169,103477.5,-349.0,-111.0,-900.0,0.875,23.0,54.75,0.125,-0.125,0.0625,281.5,-21.5,171.6875,0.6197509765625,-0.759033203125,-0.06573486328125,-0.18841552734375,10.0,19.0,1.0,-360.0,-131.0,-902.0,0,0.0,0.0,
120,4.612336158752441,0.035135507583618164,28.461236759427017,26.017184322588047,103459.5,-347.0,-115.0,-902.0,1.25,21.5,53.5625,-0.125,-0.125,0.0,283.125,-21.5,171.75,0.6090087890625,-0.7677001953125,-0.06317138671875,-0.18914794921875,13.0,15.0,0.0,-360.0,-130.0,-902.0,0,0.0,0.0,
121,4.648741245269775,0.036405086517333984,27.46868901201095,26.02855130367191,103459.5,-348.0,-112.0,-892.0,0.875,21.75,54.0,0.1875,-0.25,0.0,284.625,-21.5,171.75,0.59869384765625,-0.7757568359375,-0.06072998046875,-0.18988037109375,12.0,17.0,10.0,-360.0,-130.0,-902.0,0,0.0,0.0,
122,4.686453580856323,0.03771233558654785,26.516522629712284,26.032478055124102,103459.5,-349.0,-112.0,-897.0,0.875,21.75,54.0,0.125,-0.0625,0.0625,284.6875,-21.5,171.75,0.59869384765625,-0.77581787109375,-0.060791015625,-0.189697265625,10.0,17.0,5.0,-360.0,-130.0,-902.0,0,0.0,0.0,
123,4.7245543003082275,0.0381007194519043,26.246223546049585,26.034201785335718,103459.5,-350.0,-110.0,-898.0,0.875,21.5,54.75,-0.0625,0.0,0.1875,286.0,-21.5,171.8125,0.58941650390625,-0.78289794921875,-0.05865478515625,-0.19024658203125,9.0,19.0,4.0,-359.0,-129.0,-902.0,0,0.0,0.0,
124,4.759746789932251,0.03519248962402344,28.415153650208662,26.051806004109935,103459.5,-350.0,-115.0,-893.0,0.5,21.0625,53.1875,-0.125,0.125,0.0,287.25,-21.5,171.8125,0.580810546875,-0.789306640625,-0.056640625,-0.19073486328125,9.0,13.0,9.0,-359.0,-129.0,-903.0,0,0.0,0.0,
125,4.7977728843688965,0.03802609443664551,26.297730934899963,26.053755151113748,103459.5,-349.0,-112.0,-893.0,1.25,22.1875,54.0,0.0,0.0,0.0625,288.625,-21.5,171.8125,0.57147216796875,-0.796142578125,-0.054443359375,-0.19122314453125,10.0,16.0,10.0,-359.0,-129.0,-903.0,0,0.0,0.0,
126,4.833845376968384,0.036072492599487305,27.72195454034726,26.066204061955894,103459.5,-348.0,-113.0,-896.0,1.25,22.1875,54.0,0.1875,-0.125,-0.0625,288.625,-21.5,171.8125,0.57147216796875,-0.79620361328125,-0.0545654296875,-0.19110107421875,10.0,15.0,6.0,-359.0,-129.0,-903.0,0,0.0,0.0,
127,4.871946096420288,0.0381007194519043,26.246223546049585,26.067611891953103,103459.5,-347.0,-113.0,-903.0,1.6875,21.0625,54.75,0.125,-0.5625,0.0625,289.6875,-21.5,171.875,0.56396484375,-0.80157470703125,-0.05279541015625,-0.1915283203125,11.0,15.0,0.0,-359.0,-128.0,-903.0,0,0.0,0.0,
128,4.9067394733428955,0.03479337692260742,28.74110214206422,26.086569440947986,103459.5,-348.0,-113.0,-892.0,1.6875,21.0625,53.5625,-0.1875,0.25,0.0,290.75,-21.4375,171.875,0.55645751953125,-0.80682373046875,-0.05108642578125,-0.19189453125,11.0,15.0,11.0,-359.0,-128.0,-903.0,0,0.0,0.0,
129,4.944143533706665,0.03740406036376953,26.735065398638483,26.09147552463705,103459.5,-350.0,-113.0,-890.0,1.6875,22.1875,54.0,0.25,-0.1875,0.125,291.9375,-21.4375,171.875,0.54833984375,-0.8123779296875,-0.0491943359375,-0.1922607421875,8.0,15.0,12.0,-359.0,-128.0,-903.0,0,0.0,0.0,
130,4.978421449661255,0.034277915954589844,29.173302172884846,26.112694819930432,103459.5,-347.0,-113.0,-899.0,1.6875,22.1875,54.0,-0.0625,0.0,-0.0625,291.9375,-21.4375,171.875,0.54833984375,-0.8123779296875,-0.04925537109375,-0.192138671875,11.0,14.0,4.0,-359.0,-128.0,-903.0,0,0.0,0.0,
131,5.013323545455933,0.034902095794677734,28.6515745611039,26.13037016506508,103450.75,-350.0,-113.0,-903.0,1.6875,23.0,54.375,0.0,0.0,0.0,293.125,-21.4375,171.9375,0.5399169921875,-0.8179931640625,-0.04736328125,-0.19256591796875,8.0,14.0,0.0,-359.0,-127.0,-903.0,0,0.0,0.0,
132,5.049417972564697,0.03609442710876465,27.705107965466905,26.14162676118385,103450.75,-349.0,-112.0,-893.0,1.6875,21.75,54.375,-0.25,-0.0625,0.0,294.0625,-21.4375,171.9375,0.5333251953125,-0.8223876953125,-0.04583740234375,-0.19287109375,9.0,15.0,10.0,-359.0,-127.0,-903.0,0,0.0,0.0,
133,5.0885233879089355,0.03910541534423828,25.571905865138397,26.137248443433936,103450.75,-350.0,-112.0,-895.0,1.6875,21.75,54.375,-0.0625,-0.125,0.0625,294.0625,-21.4375,171.9375,0.53326416015625,-0.8223876953125,-0.0458984375,-0.1927490234375,8.0,14.0,7.0,-358.0,-127.0,-903.0,0,0.0,0.0,
134,5.124761343002319,0.03623795509338379,27.595376102846842,26.147559082526303,103450.75,-349.0,-113.0,-899.0,1.25,22.5625,54.375,0.0,-0.375,0.0625,295.0,-21.4375,171.9375,0.5263671875,-0.826904296875,-0.0443115234375,-0.1929931640625,9.0,13.0,3.0,-358.0,-127.0,-903.0,0,0.0,0.0,
135,5.159712076187134,0.03495073318481445,28.61170307106703,26.16425064162898,103450.75,-352.0,-118.0,-907.0,1.25,22.5625,54.0,0.25,-0.3125,-0.0625,295.9375,-21.4375,171.9375,0.51971435546875,-0.83111572265625,-0.04278564453125,-0.1932373046875,9.0,14.0,12.0,-358.0,-127.0,-903.0,0,0.0,0.0,
136,5.200042247772217,0.04033017158508301,24.795332147058648,26.153633666777345,103450.75,-352.0,-116.0,-897.0,1.6875,22.5625,54.75,0.0625,-0.1875,0.0,296.75,-21.4375,171.9375,0.5135498046875,-0.83489990234375,-0.04144287109375,-0.1934814453125,5.0,10.0,6.0,-358.0,-127.0,-903.0,0,0.0,0.0,
137,5.235913991928101,0.03587174415588379,27.87709445223552,26.165441260342476,103450.75,-349.0,-118.0,-903.0,1.6875,22.5625,54.75,0.25,-0.0625,0.125,296.75,-21.4375,172.0,0.5135498046875,-0.8349609375,-0.04144287109375,-0.19342041015625,9.0,8.0,0.0,-358.0,-126.0,-903.0,0,0.0,0.0,
138,5.266468048095703,0.03055405616760254,32.72887876210467,26.20351984284786,103450.75,-350.0,-118.0,-909.0,1.25,21.75,54.375,0.0625,0.1875,0.0625,297.4375,-21.375,172.0,0.50860595703125,-0.83795166015625,-0.04034423828125,-0.193603515625,7.0,8.0,-5.0,-358.0,-126.0,-903.0,0,0.0,0.0,
139,5.303111553192139,0.03664350509643555,27.289965776152616,26.211026980251013,103450.75,-351.0,-116.0,-901.0,2.375,21.75,54.75,-0.25,-0.125,-0.0625,298.125,-21.375,172.0,0.50360107421875,-0.84100341796875,-0.0391845703125,-0.19378662109375,7.0,10.0,2.0,-358.0,-126.0,-904.0,0,0.0,0.0,
140,5.349260330200195,0.04614877700805664,21.669046610388403,26.171842714329163,103450.75,-351.0,-115.0,-902.0,1.6875,22.1875,53.5625,0.0,-0.125,-0.0625,298.875,-21.375,172.0,0.4984130859375,-0.8441162109375,-0.03802490234375,-0.1939697265625,7.0,9.0,2.0,-358.0,-126.0,-904.0,0,0.0,0.0,
141,5.3802995681762695,0.03103923797607422,32.217285771346056,26.20671920091505,103455.25,-347.0,-117.0,-899.0,1.6875,22.1875,53.5625,-0.1875,0.0,-0.125,298.875,-21.375,172.0,0.4984130859375,-0.8441162109375,-0.0380859375,-0.19384765625,10.0,8.0,4.0,-358.0,-126.0,-904.0,0,0.0,0.0,
142,5.418853998184204,0.03855443000793457,25.93735660971251,26.204802721679265,103455.25,-349.0,-116.0,-907.0,0.5,21.0625,54.0,0.0625,-0.3125,-0.125,299.25,-21.375,172.0,0.495361328125,-0.845947265625,-0.037353515625,-0.1939697265625,8.0,9.0,-2.0,-358.0,-126.0,-904.0,0,0.0,0.0,
143,5.454496145248413,0.035642147064208984,28.05667117074933,26.216903668466593,103455.25,-351.0,-116.0,-898.0,1.6875,21.0625,54.0,0.0625,0.0,0.0,299.75,-21.375,172.0,0.49188232421875,-0.84796142578125,-0.03662109375,-0.19403076171875,6.0,6.0,4.0,-358.0,-126.0,-904.0,0,0.0,0.0,
144,5.49065089225769,0.036154747009277344,27.658885283954525,26.22639880511305,103455.25,-350.0,-115.0,-903.0,1.6875,21.0625,54.0,0.1875,-0.375,0.0,300.1875,-21.375,172.0,0.48828125,-0.85003662109375,-0.03582763671875,-0.1942138671875,9.0,8.0,5.0,-358.0,-126.0,-904.0,0,0.0,0.0,
145,5.528692007064819,0.038041114807128906,26.287347389004488,26.22681817231133,103455.25,-349.0,-118.0,-909.0,1.6875,21.75,55.1875,0.125,-0.25,0.0,300.1875,-21.375,172.0,0.48828125,-0.85003662109375,-0.03582763671875,-0.1942138671875,7.0,7.0,-2.0,-358.0,-126.0,-904.0,0,0.0,0.0,
146,5.566793203353882,0.0381011962890625,26.245895074088907,26.226948741698887,103455.25,-352.0,-117.0,-896.0,0.5,20.25,53.5625,0.1875,-0.1875,-0.0625,300.4375,-21.375,172.0,0.486572265625,-0.85101318359375,-0.035400390625,-0.19427490234375,6.0,9.0,0.0,-358.0,-126.0,-904.0,0,0.0,0.0,
147,5.606900453567505,0.04010725021362305,24.93314786413192,26.217693932209595,103455.25,-350.0,-114.0,-900.0,0.875,21.0625,54.75,0.125,0.125,-0.0625,300.75,-21.375,172.0,0.48431396484375,-0.852294921875,-0.034912109375,-0.1943359375,8.0,8.0,-1.0,-358.0,-126.0,-904.0,0,0.0,0.0,
148,5.64199423789978,0.03509378433227539,28.495074527494328,26.231859473697845,103455.25,-350.0,-116.0,-903.0,0.875,21.0625,54.75,-0.25,0.3125,-0.0625,300.75,-21.375,172.0,0.48431396484375,-0.852294921875,-0.034912109375,-0.1943359375,7.0,9.0,0.0,-358.0,-126.0,-904.0,0,0.0,0.0,
149,5.681098461151123,0.03910422325134277,25.572685425113555,26.227322236870567,103455.25,-352.0,-116.0,-908.0,2.0,21.75,55.5625,-0.0625,-0.0625,0.0,301.1875,-21.375,172.0,0.481201171875,-0.85406494140625,-0.0341796875,-0.1944580078125,7.0,9.0,0.0,-358.0,-126.0,-904.0,0,0.0,0.0,
150,5.718196392059326,0.037097930908203125,26.955681233933163,26.232047610029646,103455.25,-350.0,-116.0,-898.0,0.1875,22.1875,54.375,-0.1875,0.0,0.0625,301.5625,-21.375,172.0,0.47845458984375,-0.8555908203125,-0.0335693359375,-0.194580078125,7.0,9.0,-3.0,-358.0,-126.0,-904.0,0,0.0,0.0,
151,5.755295276641846,0.03709888458251953,26.95498830364258,26.236707717298376,103445.5,-349.0,-116.0,-899.0,1.6875,21.5,53.5625,-0.3125,0.25,0.0625,301.9375,-21.375,172.0,0.4754638671875,-0.8572998046875,-0.03289794921875,-0.1947021484375,7.0,9.0,0.0,-358.0,-126.0,-904.0,0,0.0,0.0,
152,5.791393280029297,0.03609800338745117,27.702363182436628,26.24584321084668,103445.5,-350.0,-118.0,-901.0,1.6875,21.5,53.5625,0.0625,-0.375,-0.0625,301.9375,-21.375,172.0,0.4754638671875,-0.8572998046875,-0.03289794921875,-0.1947021484375,7.0,8.0,2.0,-358.0,-126.0,-904.0,0,0.0,0.0,
153,5.824479103088379,0.03308582305908203,30.224425676649467,26.268443459411348,103445.5,-351.0,-117.0,-906.0,2.375,21.0625,54.0,-0.0625,-0.1875,-0.125,302.3125,-21.375,172.0,0.47283935546875,-0.8587646484375,-0.03228759765625,-0.19482421875,6.0,9.0,1.0,-358.0,-126.0,-904.0,0,0.0,0.0,
154,5.861622095108032,0.03714299201965332,26.922979157706898,26.272591016832127,103445.5,-351.0,-117.0,-897.0,0.875,21.5,54.0,-0.1875,0.0625,0.0,302.5625,-21.375,172.0,0.47076416015625,-0.85986328125,-0.03179931640625,-0.19488525390625,7.0,8.0,-3.0,-358.0,-126.0,-904.0,0,0.0,0.0,
155,5.900620698928833,0.03899860382080078,25.641943608930625,26.268422918310588,103445.5,-351.0,-118.0,-901.0,1.25,21.75,54.75,0.0,0.0,0.25,302.5625,-21.375,172.0,0.47076416015625,-0.85986328125,-0.03179931640625,-0.19488525390625,7.0,10.0,3.0,-358.0,-126.0,-904.0,0,0.0,0.0,
156,5.938783645629883,0.038162946701049805,26.203427314811922,26.26800525302757,103445.5,-349.0,-117.0,-900.0,1.25,21.75,54.75,0.1875,0.0625,0.0,302.875,-21.375,172.0,0.4686279296875,-0.86102294921875,-0.03131103515625,-0.1949462890625,8.0,9.0,3.0,-358.0,-126.0,-904.0,0,0.0,0.0,
157,5.972915410995483,0.034131765365600586,29.298220859324246,26.28532118686633,103445.5,-350.0,-118.0,-906.0,2.0,21.0625,54.0,-0.4375,0.375,-0.0625,303.125,-21.375,172.0,0.46661376953125,-0.86212158203125,-0.0308837890625,-0.19500732421875,5.0,9.0,-1.0,-358.0,-126.0,-904.0,0,0.0,0.0,
158,6.0102996826171875,0.0373842716217041,26.749217160604843,26.288206635845956,103445.5,-350.0,-116.0,-898.0,0.5,21.75,54.0,0.375,-0.3125,0.0625,303.3125,-21.375,172.0,0.46514892578125,-0.8629150390625,-0.030517578125,-0.195068359375,7.0,8.0,-4.0,-358.0,-126.0,-904.0,0,0.0,0.0,
159,6.046463966369629,0.036164283752441406,27.651591466469768,26.296361126826586,103445.5,-349.0,-116.0,-904.0,0.5,21.75,54.0,0.125,-0.0625,0.0,303.3125,-21.375,172.0,0.46514892578125,-0.8629150390625,-0.030517578125,-0.195068359375,8.0,9.0,0.0,-358.0,-126.0,-904.0,0,0.0,0.0,
160,6.084398031234741,0.037934064865112305,26.361530290936287,26.29676743346298,103445.5,-350.0,-116.0,-903.0,2.0,21.75,55.5625,0.25,-0.125,0.0625,303.5625,-21.375,172.0,0.4632568359375,-0.86395263671875,-0.03009033203125,-0.19512939453125,7.0,9.0,0.0,-358.0,-126.0,-904.0,0,0.0,0.0,
161,6.123408079147339,0.039010047912597656,25.634421219899767,26.292547862075303,103448.25,-351.0,-118.0,-904.0,1.6875,22.1875,54.375,0.25,-0.125,0.0,303.875,-21.375,172.0,0.4608154296875,-0.865234375,-0.029541015625,-0.19525146484375,7.0,8.0,0.0,-358.0,-126.0,-904.0,0,0.0,0.0,
162,6.164385080337524,0.04097700119018555,24.403933205329608,26.27999352550666,103448.25,-352.0,-116.0,-903.0,2.0,22.5625,54.0,0.0625,0.0,0.125,304.25,-21.375,172.0,0.4578857421875,-0.8668212890625,-0.02886962890625,-0.1953125,8.0,7.0,-5.0,-358.0,-126.0,-904.0,0,0.0,0.0,
163,6.197566986083984,0.03318190574645996,30.136906772049578,26.300643521239895,103448.25,-351.0,-117.0,-899.0,1.6875,22.5625,54.0,-0.125,0.0,0.0625,304.25,-21.375,172.0,0.4578857421875,-0.8668212890625,-0.02886962890625,-0.1953125,7.0,9.0,1.0,-358.0,-126.0,-904.0,0,0.0,0.0,
164,6.2374162673950195,0.039849281311035156,25.09455546248654,26.292938128449233,103448.25,-349.0,-117.0,-899.0,1.6875,23.0,54.375,0.125,-0.1875,0.0625,304.625,-21.375,172.0,0.45501708984375,-0.8682861328125,-0.02825927734375,-0.1954345703125,8.0,8.0,4.0,-358.0,-126.0,-904.0,0,0.0,0.0,
165,6.27179479598999,0.0343785285949707,29.087923214558163,26.308258699008515,103448.25,-351.0,-116.0,-909.0,1.25,22.5625,54.375,0.25,-0.0625,-0.0625,304.9375,-21.375,172.0,0.4530029296875,-0.869384765625,-0.02783203125,-0.19549560546875,7.0,7.0,0.0,-358.0,-126.0,-904.0,0,0.0,0.0,
166,6.308799505233765,0.037004709243774414,27.02358754969106,26.31245451092348,103448.25,-351.0,-117.0,-901.0,1.25,23.25,55.1875,0.0,-0.0625,0.125,305.25,-21.375,172.0,0.45074462890625,-0.87054443359375,-0.02728271484375,-0.195556640625,7.0,9.0,2.0,-358.0,-126.0,-904.0,0,0.0,0.0,
167,6.345053434371948,0.036253929138183594,27.583217151124558,26.319715306941326,103448.25,-350.0,-115.0,-902.0,1.25,23.25,55.1875,0.125,0.125,-0.0625,305.25,-21.375,172.0,0.45074462890625,-0.87054443359375,-0.02728271484375,-0.195556640625,4.0,10.0,1.0,-358.0,-126.0,-904.0,0,0.0,0.0,
168,6.395999431610107,0.05094599723815918,19.628627452815618,26.26641884452267,103448.25,-349.0,-115.0,-901.0,1.6875,23.25,54.75,-0.0625,0.0,-0.125,305.5625,-21.375,172.0,0.44805908203125,-0.8719482421875,-0.02667236328125,-0.1956787109375,8.0,10.0,2.0,-358.0,-126.0,-904.0,0,0.0,0.0,
169,6.437119245529175,0.04111981391906738,24.31917619978083,26.253980010915125,103448.25,-349.0,-119.0,-900.0,1.6875,23.25,54.75,0.0625,-0.125,-0.0625,305.5625,-21.375,172.0,0.44805908203125,-0.8719482421875,-0.02667236328125,-0.1956787109375,8.0,7.0,3.0,-358.0,-126.0,-904.0,0,0.0,0.0,
170,6.473337888717651,0.03621864318847656,27.610090052135448,26.26156751315147,103448.25,-352.0,-119.0,-907.0,2.0,23.25,54.375,0.0625,0.0625,-0.125,305.9375,-21.375,172.0,0.44537353515625,-0.873291015625,-0.026123046875,-0.19573974609375,5.0,6.0,-3.0,-358.0,-126.0,-904.0,0,0.0,0.0,
171,6.510303974151611,0.03696608543395996,27.051822995607782,26.266054654119866,103442.5,-349.0,-117.0,-898.0,0.5,22.5625,54.75,-0.0625,-0.0625,-0.0625,305.9375,-21.375,172.0,0.44512939453125,-0.8734130859375,-0.02606201171875,-0.19573974609375,8.0,9.0,5.0,-358.0,-126.0,-904.0,0,0.0,0.0,
172,6.547491073608398,0.03718709945678711,26.891045943554694,26.26960435170304,103442.5,-351.0,-117.0,-898.0,1.25,23.0,54.375,-0.0625,0.0625,0.0625,306.1875,-21.375,172.0,0.443603515625,-0.87420654296875,-0.02569580078125,-0.19580078125,6.0,9.0,6.0,-358.0,-126.0,-904.0,0,0.0,0.0,
173,6.582496166229248,0.03500509262084961,28.567271934723678,26.28182313079906,103442.5,-351.0,-118.0,-907.0,1.25,23.0,54.375,0.125,0.0,-0.0625,306.1875,-21.375,172.0,0.443603515625,-0.87420654296875,-0.02569580078125,-0.19580078125,6.0,8.0,-2.0,-358.0,-126.0,-904.0,0,0.0,0.0,
174,6.6146416664123535,0.03214550018310547,31.108553119530068,26.30527982846485,103442.5,-350.0,-117.0,-907.0,0.875,22.5625,54.375,-0.0625,0.25,0.0,306.25,-21.375,172.0,0.44305419921875,-0.87445068359375,-0.02557373046875,-0.19580078125,7.0,8.0,-3.0,-358.0,-126.0,-904.0,0,0.0,0.0,
175,6.654102802276611,0.03946113586425781,25.34138914398956,26.299563622630856,103442.5,-351.0,-118.0,-898.0,1.6875,21.75,55.5625,-0.125,0.0,0.0,306.25,-21.375,172.0,0.4429931640625,-0.87451171875,-0.02557373046875,-0.19580078125,7.0,9.0,7.0,-358.0,-126.0,-904.0,0,0.0,0.0,
176,6.690831422805786,0.036728620529174805,27.226723617503293,26.304653170621172,103442.5,-351.0,-114.0,-901.0,1.6875,21.75,55.5625,0.125,-0.125,0.125,306.25,-21.375,172.0,0.4429931640625,-0.87451171875,-0.02557373046875,-0.19580078125,7.0,11.0,2.0,-358.0,-126.0,-904.0,0,0.0,0.0,
177,6.726905107498169,0.03607368469238281,27.721038439168826,26.31224867475926,103442.5,-351.0,-115.0,-904.0,2.0,21.75,53.5625,0.125,0.25,-0.125,306.3125,-21.375,172.0,0.44219970703125,-0.8748779296875,-0.025390625,-0.19580078125,6.0,10.0,0.0,-358.0,-126.0,-904.0,0,0.0,0.0,
178,6.765983581542969,0.039078474044799805,25.58953552929405,26.30807448093267,103442.5,-351.0,-118.0,-910.0,2.0,20.6875,54.75,0.25,-0.0625,-0.0625,306.3125,-21.375,172.0,0.4422607421875,-0.8748779296875,-0.025390625,-0.19580078125,6.0,8.0,-5.0,-358.0,-126.0,-904.0,0,0.0,0.0,
179,6.796007394790649,0.030023813247680664,33.306895155206504,26.338994294975173,103442.5,-350.0,-116.0,-898.0,1.25,22.1875,55.1875,0.125,0.0,0.0,306.375,-21.375,172.0,0.442138671875,-0.87493896484375,-0.025390625,-0.19580078125,7.0,9.0,5.0,-358.0,-126.0,-904.0,0,0.0,0.0,
180,6.828149080276489,0.032141685485839844,31.112245200723972,26.36146309692338,103442.5,-350.0,-117.0,-903.0,1.25,22.1875,55.1875,-0.1875,0.25,-0.0625,306.375,-21.375,172.0,0.442138671875,-0.87493896484375,-0.025390625,-0.19580078125,7.0,8.0,0.0,-358.0,-126.0,-904.0,0,0.0,0.0,
181,6.864374876022339,0.03622579574584961,27.604638612101986,26.36802378498347,103442.5,-352.0,-117.0,-909.0,2.0,22.5625,53.1875,0.0625,0.0,0.125,306.625,-21.375,172.0,0.4400634765625,-0.8759765625,-0.02490234375,-0.19586181640625,5.0,9.0,-4.0,-358.0,-126.0,-904.0,0,0.0,0.0,
182,6.89432430267334,0.029949426651000977,33.38962083157534,26.39852609332981,103446.75,-351.0,-117.0,-901.0,0.875,21.5,53.5625,-0.1875,-0.1875,0.0,306.625,-21.375,172.0,0.4400634765625,-0.8759765625,-0.02490234375,-0.19586181640625,7.0,8.0,2.0,-358.0,-126.0,-904.0,0,0.0,0.0,
183,6.930640459060669,0.0363161563873291,27.535953676774707,26.404486148283407,103446.75,-351.0,-118.0,-898.0,0.875,21.5,53.5625,0.0,-0.25,0.0,306.625,-21.375,172.0,0.4400634765625,-0.8759765625,-0.02490234375,-0.19586181640625,6.0,8.0,0.0,-358.0,-126.0,-904.0,0,0.0,0.0,
184,6.968157768249512,0.03751730918884277,26.65436358899078,26.40583151523894,103446.75,-348.0,-118.0,-905.0,1.25,22.1875,53.1875,0.1875,-0.125,0.0625,306.6875,-21.375,172.0,0.43939208984375,-0.8763427734375,-0.0247802734375,-0.1959228515625,9.0,8.0,-1.0,-358.0,-126.0,-904.0,0,0.0,0.0,
185,7.0003886222839355,0.03223085403442383,31.026171349104196,26.427104262626237,103446.75,-349.0,-117.0,-904.0,1.25,21.5,54.0,-0.1875,-0.0625,0.0,306.6875,-21.375,172.0,0.43939208984375,-0.8763427734375,-0.0247802734375,-0.1959228515625,8.0,8.0,0.0,-358.0,-126.0,-904.0,0,0.0,0.0,
186,7.03783655166626,0.03744792938232422,26.703746148165127,26.42857625841895,103446.75,-352.0,-115.0,-899.0,1.25,21.5,54.0,0.125,-0.1875,-0.0625,306.6875,-21.375,172.0,0.43939208984375,-0.8763427734375,-0.0247802734375,-0.1959228515625,5.0,10.0,4.0,-358.0,-126.0,-904.0,0,0.0,0.0,
187,7.068761110305786,0.030924558639526367,32.33675900298365,26.454423495422184,103446.75,-351.0,-117.0,-906.0,2.0,20.6875,54.75,-0.125,-0.125,0.0625,306.6875,-21.375,172.0,0.43951416015625,-0.87628173828125,-0.0247802734375,-0.1959228515625,6.0,8.0,-2.0,-358.0,-126.0,-904.0,0,0.0,0.0,
188,7.102677583694458,0.033916473388671875,29.484197503093014,26.468891173040095,103446.75,-351.0,-117.0,-906.0,0.875,20.6875,54.0,-0.375,0.25,0.0625,306.625,-21.375,172.0,0.43994140625,-0.87603759765625,-0.02490234375,-0.19586181640625,6.0,8.0,-1.0,-358.0,-126.0,-904.0,0,0.0,0.0,
189,7.137972593307495,0.03529500961303711,28.332617300963268,26.478106707387035,103446.75,-350.0,-120.0,-903.0,0.875,20.6875,54.0,-0.125,-0.1875,-0.0625,306.625,-21.375,172.0,0.43994140625,-0.87603759765625,-0.02490234375,-0.19586181640625,7.0,6.0,0.0,-358.0,-126.0,-904.0,0,0.0,0.0,
190,7.173104763031006,0.03513216972351074,28.46394082318211,26.487832852968847,103446.75,-349.0,-115.0,-905.0,2.0,21.75,53.1875,0.0,0.5,0.125,306.75,-21.375,172.0,0.43914794921875,-0.87640380859375,-0.02471923828125,-0.1959228515625,8.0,10.0,-1.0,-358.0,-126.0,-904.0,0,0.0,0.0,
191,7.211318492889404,0.03821372985839844,26.168604941352633,26.486141222070867,103446.75,-350.0,-117.0,-907.0,0.1875,21.75,54.75,0.375,-0.3125,0.125,306.6875,-21.375,172.0,0.43939208984375,-0.8763427734375,-0.02471923828125,-0.1959228515625,7.0,8.0,6.0,-358.0,-126.0,-904.0,0,0.0,0.0,
192,7.244451522827148,0.03313302993774414,30.1813628840757,26.50304158914048,103446.75,-350.0,-118.0,-897.0,1.6875,22.1875,54.375,-0.0625,-0.5,0.0625,306.75,-21.375,172.0,0.43896484375,-0.87652587890625,-0.024658203125,-0.1959228515625,7.0,7.0,6.0,-358.0,-126.0,-904.0,0,0.0,0.0,
193,7.278478622436523,0.034027099609375,29.388340807174888,26.51653044704442,103441.0,-349.0,-116.0,-906.0,1.6875,22.1875,54.375,0.375,-0.375,0.0625,306.75,-21.375,172.0,0.43896484375,-0.87652587890625,-0.024658203125,-0.1959228515625,6.0,8.0,-2.0,-358.0,-126.0,-904.0,0,0.0,0.0,
194,7.313669681549072,0.03519105911254883,28.416308722104038,26.525671577624465,103441.0,-350.0,-117.0,-899.0,1.25,20.6875,53.5625,0.3125,0.0,0.0625,306.75,-21.375,172.0,0.4390869140625,-0.87646484375,-0.02471923828125,-0.1959228515625,6.0,9.0,-3.0,-358.0,-126.0,-904.0,0,0.0,0.0,
195,7.343520879745483,0.029851198196411133,33.49949283175592,26.554019957625346,103441.0,-352.0,-117.0,-900.0,1.25,20.6875,53.5625,-0.0625,-0.0625,0.0,306.75,-21.375,172.0,0.4390869140625,-0.87646484375,-0.02471923828125,-0.1959228515625,5.0,8.0,3.0,-358.0,-126.0,-904.0,0,0.0,0.0,
196,7.375605583190918,0.03208470344543457,31.1675001671955,26.574089108924973,103441.0,-350.0,-116.0,-907.0,2.0,23.0,53.5625,0.25,-0.125,0.0625,307.0,-21.375,172.0,0.43701171875,-0.87750244140625,-0.02423095703125,-0.19598388671875,8.0,9.0,3.0,-358.0,-126.0,-904.0,0,0.0,0.0,
197,7.411761045455933,0.03615546226501465,27.658338114173045,26.579378206044364,103441.0,-350.0,-117.0,-901.0,2.0,21.5,54.75,-0.25,-0.125,-0.0625,307.0,-21.375,172.0,0.43701171875,-0.87750244140625,-0.02423095703125,-0.19598388671875,8.0,10.0,-5.0,-358.0,-126.0,-904.0,0,0.0,0.0,
198,7.439774036407471,0.028012990951538086,35.69772330737478,26.613711522831483,103441.0,-350.0,-116.0,-898.0,2.0,21.5,54.75,-0.0625,-0.0625,-0.0625,307.0,-21.375,172.0,0.43701171875,-0.87750244140625,-0.02423095703125,-0.19598388671875,7.0,9.0,6.0,-358.0,-126.0,-904.0,0,0.0,0.0,
199,7.478298664093018,0.038524627685546875,25.95742152688385,26.610330629812456,103441.0,-350.0,-115.0,-910.0,1.6875,23.25,54.75,0.0,0.0625,-0.0625,307.0,-21.375,172.0,0.43701171875,-0.87750244140625,-0.02423095703125,-0.19598388671875,7.0,10.0,0.0,-358.0,-126.0,-904.0,0,0.0,0.0,
200,7.514024257659912,0.03572559356689453,27.991137449614264,26.61689570620123,103441.0,-351.0,-117.0,-897.0,1.25,23.6875,54.375,0.0625,-0.1875,-0.0625,307.0,-21.375,172.0,0.43701171875,-0.87750244140625,-0.02423095703125,-0.19598388671875,7.0,9.0,-3.0,-358.0,-126.0,-904.0,0,0.0,0.0,
201,7.550070762634277,0.036046504974365234,27.741940604537337,26.62226703817933,103441.0,-349.0,-119.0,-899.0,1.25,23.6875,54.375,0.1875,0.0,0.0,307.0,-21.375,172.0,0.43701171875,-0.87750244140625,-0.02423095703125,-0.19598388671875,8.0,7.0,4.0,-358.0,-126.0,-904.0,0,0.0,0.0,
202,7.584439039230347,0.034368276596069336,29.096600092958077,26.633479279767347,103441.0,-351.0,-117.0,-905.0,0.5,23.25,54.75,0.125,0.0,-0.0625,307.0,-21.375,172.0,0.43701171875,-0.87750244140625,-0.02423095703125,-0.19598388671875,7.0,9.0,6.0,-358.0,-126.0,-904.0,0,0.0,0.0,
203,7.618250131607056,0.033811092376708984,29.576092628372376,26.646539099284933,103441.0,-350.0,-117.0,-895.0,2.0,23.25,54.0,0.1875,-0.1875,-0.0625,307.0,-21.375,172.0,0.43701171875,-0.87750244140625,-0.02423095703125,-0.19598388671875,7.0,8.0,-2.0,-358.0,-126.0,-904.0,0,0.0,0.0,
204,7.6504809856414795,0.03223085403442383,31.026171349104196,26.66499013367523,103447.25,-350.0,-117.0,-901.0,0.875,22.1875,53.5625,0.0,0.0625,-0.125,307.0,-21.375,172.0,0.43701171875,-0.87750244140625,-0.02423095703125,-0.19598388671875,7.0,9.0,1.0,-358.0,-126.0,-904.0,0,0.0,0.0,
205,7.685466051101685,0.03498506546020508,28.58362523681664,26.67372396637078,103447.25,-351.0,-117.0,-901.0,0.875,22.1875,53.5625,0.1875,-0.25,-0.0625,307.0,-21.375,172.0,0.43701171875,-0.87750244140625,-0.02423095703125,-0.19598388671875,8.0,8.0,5.0,-358.0,-126.0,-904.0,0,0.0,0.0,
206,7.72052264213562,0.03505659103393555,28.52530638338389,26.68213144997877,103447.25,-349.0,-116.0,-906.0,0.5,23.6875,55.1875,0.0,-0.125,0.0625,307.0,-21.375,172.0,0.43701171875,-0.87750244140625,-0.02423095703125,-0.19598388671875,7.0,9.0,-1.0,-358.0,-126.0,-904.0,0,0.0,0.0,
207,7.761077642440796,0.04055500030517578,24.657871840094064,26.67155381464528,103447.25,-352.0,-116.0,-899.0,2.375,23.25,53.875,0.0625,0.4375,0.0,307.0,-21.375,172.0,0.43701171875,-0.87750244140625,-0.02423095703125,-0.19598388671875,5.0,9.0,4.0,-358.0,-126.0,-904.0,0,0.0,0.0,
208,7.794968605041504,0.03389096260070801,29.506391181084638,26.683879119855995,103447.25,-351.0,-117.0,-901.0,2.375,23.25,53.875,0.0625,0.0625,-0.125,307.0,-21.375,172.0,0.43701171875,-0.87750244140625,-0.02423095703125,-0.19598388671875,7.0,8.0,2.0,-358.0,-126.0,-904.0,0,0.0,0.0,
209,7.834068775177002,0.03910017013549805,25.575336284588836,26.678346335461917,103447.25,-351.0,-116.0,-902.0,2.375,23.0,54.375,-0.25,0.0,-0.0625,307.0,-21.375,172.0,0.43701171875,-0.87750244140625,-0.02423095703125,-0.19598388671875,6.0,10.0,4.0,-358.0,-126.0,-904.0,0,0.0,0.0,
210,7.8749988079071045,0.04093003273010254,24.431937462501384,26.66667070338396,103447.25,-352.0,-120.0,-905.0,2.75,23.6875,53.5625,0.0625,-0.125,-0.0625,307.0,-21.375,172.0,0.43701171875,-0.87750244140625,-0.02423095703125,-0.19598388671875,8.0,9.0,1.0,-358.0,-126.0,-904.0,0,0.0,0.0,
211,7.910024642944336,0.035025835037231445,28.55035430096182,26.675011712916714,103447.25,-350.0,-117.0,-899.0,2.0,23.6875,54.375,-0.1875,-0.125,0.125,307.0,-21.375,172.0,0.43701171875,-0.87750244140625,-0.02423095703125,-0.19598388671875,7.0,9.0,4.0,-358.0,-126.0,-904.0,0,0.0,0.0,
212,7.948265790939331,0.03824114799499512,26.149842576140156,26.672484989325667,103447.25,-350.0,-116.0,-898.0,2.0,23.6875,54.375,-0.0625,-0.1875,0.0,307.0,-21.375,172.0,0.43701171875,-0.87750244140625,-0.02423095703125,-0.19598388671875,6.0,8.0,3.0,-358.0,-126.0,-904.0,0,0.0,0.0,
213,7.984222173690796,0.035956382751464844,27.81147388801952,26.677614345686273,103447.25,-350.0,-116.0,-902.0,1.6875,23.25,54.0,0.125,0.3125,0.0625,307.0,-21.375,172.0,0.43701171875,-0.87750244140625,-0.02423095703125,-0.196044921875,4.0,8.0,2.0,-358.0,-126.0,-904.0,0,0.0,0.0,
214,8.021321296691895,0.03709912300109863,26.954815076636354,26.67889641676074,103443.25,-351.0,-117.0,-908.0,1.6875,23.25,54.0,-0.3125,0.25,-0.0625,307.0,-21.375,172.0,0.43701171875,-0.87750244140625,-0.02423095703125,-0.196044921875,6.0,8.0,1.0,-358.0,-126.0,-904.0,0,0.0,0.0,
215,8.063117742538452,0.04179644584655762,23.92547930202445,26.664623643746165,103443.25,-351.0,-117.0,-898.0,2.375,21.75,52.75,0.0,-0.0625,-0.0625,307.0,-21.375,172.0,0.43701171875,-0.87750244140625,-0.02423095703125,-0.196044921875,8.0,9.0,-6.0,-358.0,-126.0,-904.0,0,0.0,0.0,
216,8.098497152328491,0.03537940979003906,28.265027764299962,26.671615231462468,103443.25,-350.0,-116.0,-900.0,2.375,21.75,52.75,-0.0625,0.0,0.0,307.0,-21.375,172.0,0.43701171875,-0.87750244140625,-0.02423095703125,-0.196044921875,6.0,10.0,3.0,-358.0,-126.0,-904.0,0,0.0,0.0,
217,8.132557392120361,0.03406023979187012,29.3597463232978,26.682873484575886,103443.25,-350.0,-116.0,-908.0,2.0,21.5,53.1875,-0.3125,0.1875,-0.0625,307.0,-21.375,172.0,0.43701171875,-0.87750244140625,-0.02423095703125,-0.196044921875,8.0,9.0,4.0,-358.0,-126.0,-904.0,0,0.0,0.0,
218,8.161074161529541,0.028516769409179688,35.06708581365795,26.712169952777717,103443.25,-351.0,-117.0,-898.0,3.1875,21.0625,54.0,-0.0625,0.0,0.0625,307.0,-21.375,172.0,0.43701171875,-0.87750244140625,-0.02423095703125,-0.196044921875,7.0,8.0,-4.0,-358.0,-126.0,-904.0,0,0.0,0.0,
219,8.198792695999146,0.03771853446960449,26.512164750352394,26.71124982912031,103443.25,-348.0,-117.0,-898.0,1.6875,22.1875,54.0,0.0625,-0.0625,-0.125,307.0,-21.375,172.0,0.43701171875,-0.87750244140625,-0.02423095703125,-0.196044921875,7.0,10.0,5.0,-358.0,-126.0,-904.0,0,0.0,0.0,
220,8.230538129806519,0.03174543380737305,31.500593315809237,26.729722471399533,103443.25,-351.0,-117.0,-904.0,1.6875,22.1875,52.75,-0.25,0.0,0.125,307.0,-21.375,172.0,0.43701171875,-0.87750244140625,-0.02423095703125,-0.196044921875,7.0,8.0,-6.0,-358.0,-126.0,-904.0,0,0.0,0.0,
221,8.276050567626953,0.04551243782043457,21.97201573656446,26.70355844180986,103443.25,-353.0,-117.0,-903.0,0.875,23.25,52.75,0.3125,-0.1875,-0.0625,307.0,-21.375,172.0,0.43701171875,-0.87750244140625,-0.02423095703125,-0.196044921875,6.0,9.0,-2.0,-358.0,-126.0,-904.0,0,0.0,0.0,
222,8.308084964752197,0.03203439712524414,31.216445125854037,26.720959275435327,103443.25,-351.0,-117.0,-898.0,1.6875,23.0,54.0,0.125,0.0625,-0.0625,307.0,-21.375,172.0,0.43701171875,-0.87750244140625,-0.02423095703125,-0.196044921875,7.0,9.0,6.0,-358.0,-126.0,-904.0,0,0.0,0.0,
223,8.339431047439575,0.03134608268737793,31.901912911199847,26.74043333789142,103443.25,-351.0,-116.0,-901.0,1.6875,23.0,54.0,0.0625,-0.1875,0.0,307.0,-21.375,172.0,0.43701171875,-0.87750244140625,-0.02423095703125,-0.196044921875,6.0,9.0,2.0,-358.0,-126.0,-904.0,0,0.0,0.0,
224,8.37191367149353,0.03248262405395508,30.78569016896405,26.756128740639404,103443.25,-350.0,-117.0,-903.0,2.0,23.0,54.375,0.0,0.0625,0.125,307.0,-21.375,172.0,0.43701171875,-0.87750244140625,-0.02423095703125,-0.196044921875,7.0,7.0,-2.0,-358.0,-126.0,-904.0,0,0.0,0.0,
225,8.404396533966064,0.03248286247253418,30.785464207335423,26.77170205982912,103446.5,-352.0,-118.0,-898.0,0.875,21.5,54.375,-0.3125,0.25,0.0,307.0,-21.375,172.0,0.43701171875,-0.87750244140625,-0.02423095703125,-0.196044921875,5.0,8.0,5.0,-358.0,-126.0,-904.0,0,0.0,0.0,
226,8.439090013504028,0.03469347953796387,28.82386008315294,26.780138573988456,103446.5,-350.0,-117.0,-900.0,0.875,21.5,54.375,-0.1875,0.1875,0.0,307.0,-21.375,172.0,0.43701171875,-0.87750244140625,-0.02423095703125,-0.196044921875,8.0,8.0,3.0,-358.0,-126.0,-904.0,0,0.0,0.0,
227,8.477005958557129,0.037915945053100586,26.37412831460533,26.778322571645056,103446.5,-349.0,-115.0,-903.0,2.0,24.5,53.1875,-0.0625,0.3125,-0.0625,307.5,-21.375,172.0,0.4334716796875,-0.8792724609375,-0.0234375,-0.19610595703125,9.0,10.0,0.0,-358.0,-126.0,-904.0,0,0.0,0.0,
228,8.508650302886963,0.031644344329833984,31.601223573376732,26.796259322426284,103446.5,-351.0,-117.0,-901.0,0.875,22.1875,53.5625,-0.125,0.3125,0.0625,307.5,-21.375,172.0,0.4334716796875,-0.8792724609375,-0.0234375,-0.19610595703125,7.0,9.0,2.0,-358.0,-126.0,-904.0,0,0.0,0.0,
229,8.542714357376099,0.03406405448913574,29.356458442694663,26.806468110720903,103446.5,-349.0,-116.0,-898.0,2.0,22.1875,55.1875,0.0625,-0.1875,0.0625,307.5,-21.375,172.0,0.4334716796875,-0.8792724609375,-0.0234375,-0.19610595703125,10.0,8.0,5.0,-358.0,-126.0,-904.0,0,0.0,0.0,
230,8.579216241836548,0.03650188446044922,27.395845852384063,26.80897572885563,103446.5,-352.0,-114.0,-901.0,2.0,22.1875,55.1875,0.125,-0.1875,-0.0625,307.5,-21.375,172.0,0.43341064453125,-0.8792724609375,-0.0234375,-0.19610595703125,5.0,11.0,2.0,-358.0,-126.0,-904.0,0,0.0,0.0,
231,8.617523908615112,0.03830766677856445,26.104435067279088,26.80584381890309,103446.5,-350.0,-117.0,-907.0,2.0,20.25,55.1875,0.0,0.1875,0.0625,307.5,-21.375,172.0,0.43341064453125,-0.8792724609375,-0.0234375,-0.19610595703125,8.0,8.0,-2.0,-358.0,-126.0,-904.0,0,0.0,0.0,
232,8.653001070022583,0.0354771614074707,28.187148022204003,26.81150714331236,103446.5,-351.0,-116.0,-899.0,2.0,20.25,53.5625,-0.0625,-0.125,0.0,307.5,-21.375,172.0,0.43341064453125,-0.8792724609375,-0.0234375,-0.19610595703125,6.0,8.0,8.0,-358.0,-126.0,-904.0,0,0.0,0.0,
233,8.686566829681396,0.03356575965881348,29.7922648009376,26.823025087869603,103446.5,-351.0,-118.0,-897.0,2.0,20.25,53.5625,-0.25,-0.0625,0.0,307.5,-21.375,172.0,0.43341064453125,-0.8792724609375,-0.0234375,-0.19610595703125,6.0,8.0,7.0,-358.0,-126.0,-904.0,0,0.0,0.0,
234,8.722184658050537,0.035617828369140625,28.07582735353968,26.828141019007095,103446.5,-351.0,-117.0,-904.0,2.375,21.0625,53.1875,-0.1875,0.25,0.0,307.5,-21.375,172.0,0.43341064453125,-0.8792724609375,-0.0234375,-0.19610595703125,7.0,7.0,-2.0,-358.0,-126.0,-904.0,0,0.0,0.0,
235,8.75527310371399,0.03308844566345215,30.222030075729737,26.84096740515301,103446.5,-351.0,-117.0,-902.0,1.6875,21.75,54.375,-0.1875,-0.0625,-0.125,307.5,-21.375,172.0,0.43341064453125,-0.8792724609375,-0.0234375,-0.19610595703125,6.0,9.0,1.0,-358.0,-126.0,-904.0,0,0.0,0.0,
236,8.792371273040771,0.03709816932678223,26.95550799802058,26.841450693014387,103448.25,-349.0,-117.0,-897.0,0.5,21.75,55.1875,0.1875,-0.0625,0.0,307.4375,-21.375,172.0,0.43389892578125,-0.8790283203125,-0.0235595703125,-0.19610595703125,6.0,9.0,5.0,-358.0,-126.0,-904.0,0,0.0,0.0,
237,8.828524827957153,0.036153554916381836,27.659797281701938,26.844801891420836,103448.25,-351.0,-117.0,-898.0,0.5,21.75,55.1875,0.3125,-0.125,0.0,307.4375,-21.375,172.0,0.43389892578125,-0.8790283203125,-0.0235595703125,-0.19610595703125,6.0,8.0,5.0,-358.0,-126.0,-904.0,0,0.0,0.0,
238,8.865639448165894,0.037114620208740234,26.94356009507291,26.845215327275348,103448.25,-350.0,-118.0,-907.0,0.875,21.75,53.5625,-0.125,0.25,-0.0625,307.4375,-21.375,172.0,0.43389892578125,-0.8790283203125,-0.0235595703125,-0.19610595703125,7.0,8.0,-2.0,-358.0,-126.0,-904.0,0,0.0,0.0,
239,8.903265237808228,0.037625789642333984,26.577515302824846,26.844084009209652,103448.25,-351.0,-119.0,-901.0,1.6875,21.75,54.75,0.1875,0.0,-0.125,307.4375,-21.375,172.0,0.43389892578125,-0.8790283203125,-0.0235595703125,-0.19610595703125,6.0,7.0,2.0,-358.0,-126.0,-904.0,0,0.0,0.0,
240,8.941770315170288,0.03850507736206055,25.970600983269556,26.840322614060504,103448.25,-352.0,-117.0,-898.0,1.6875,21.75,54.75,-0.4375,0.0,-0.0625,307.4375,-21.375,172.0,0.43389892578125,-0.8790283203125,-0.0235595703125,-0.19610595703125,5.0,9.0,6.0,-358.0,-126.0,-904.0,0,0.0,0.0,
241,8.978040933609009,0.0362706184387207,27.57052520870308,26.843272578299818,103448.25,-352.0,-117.0,-903.0,1.25,22.1875,54.0,0.0,0.125,0.1875,307.4375,-21.375,172.0,0.43377685546875,-0.87908935546875,-0.02349853515625,-0.19610595703125,5.0,9.0,0.0,-358.0,-126.0,-904.0,0,0.0,0.0,
242,9.014964580535889,0.03692364692687988,27.08291523803989,26.844254110825855,103448.25,-351.0,-115.0,-903.0,0.875,21.5,54.0,-0.0625,0.0625,0.0,307.4375,-21.375,172.0,0.4339599609375,-0.8790283203125,-0.0235595703125,-0.19610595703125,7.0,10.0,0.0,-358.0,-126.0,-904.0,0,0.0,0.0,
243,9.050057411193848,0.035092830657958984,28.49584890277872,26.850658394657014,103448.25,-348.0,-116.0,-894.0,1.6875,21.5,53.5625,-0.3125,0.4375,0.0,307.4375,-21.375,172.0,0.43389892578125,-0.8790283203125,-0.0235595703125,-0.19610595703125,9.0,9.0,9.0,-358.0,-126.0,-904.0,0,0.0,0.0,
244,9.086152791976929,0.036095380783081055,27.704375970144323,26.854049847747657,103448.25,-351.0,-117.0,-900.0,1.6875,21.5,53.5625,0.3125,0.0,0.0,307.4375,-21.375,172.0,0.43389892578125,-0.8790283203125,-0.02362060546875,-0.19610595703125,7.0,8.0,3.0,-358.0,-126.0,-904.0,0,0.0,0.0,
245,9.12225079536438,0.03609800338745117,27.702363182436628,26.857406740505397,103448.25,-350.0,-118.0,-903.0,1.25,23.0,54.0,0.1875,-0.125,0.0,307.5,-21.375,172.0,0.43328857421875,-0.87933349609375,-0.0234375,-0.19610595703125,8.0,7.0,0.0,-358.0,-126.0,-904.0,0,0.0,0.0,
246,9.154333591461182,0.03208279609680176,31.16935310073199,26.872518631990815,103448.5,-351.0,-115.0,-898.0,2.75,23.0,53.5625,0.0625,-0.125,0.0,307.8125,-21.375,172.0,0.4310302734375,-0.8804931640625,-0.02294921875,-0.1961669921875,6.0,7.0,0.0,-358.0,-126.0,-904.0,0,0.0,0.0,
247,9.186050415039062,0.03171682357788086,31.52900849432459,26.88859616921117,103448.5,-349.0,-116.0,-903.0,2.75,23.0,53.5625,-0.1875,-0.0625,-0.0625,307.8125,-21.375,172.0,0.4310302734375,-0.8804931640625,-0.02294921875,-0.1961669921875,7.0,8.0,5.0,-358.0,-126.0,-904.0,0,0.0,0.0,
248,9.22251558303833,0.03646516799926758,27.423430491807565,26.890710865928096,103448.5,-351.0,-118.0,-898.0,1.25,23.0,54.75,0.0625,-0.0625,0.0625,307.8125,-21.375,172.0,0.4307861328125,-0.88055419921875,-0.02288818359375,-0.1961669921875,8.0,10.0,-1.0,-358.0,-126.0,-904.0,0,0.0,0.0,
249,9.250936031341553,0.028420448303222656,35.18593335794101,26.9161951997511,103448.5,-351.0,-117.0,-896.0,2.0,23.25,54.75,-0.25,0.125,0.0,307.9375,-21.375,172.0,0.42987060546875,-0.88104248046875,-0.022705078125,-0.1961669921875,7.0,8.0,8.0,-358.0,-126.0,-904.0,0,0.0,0.0,
250,9.287691116333008,0.03675508499145508,27.207119783085325,26.91734650395067,103448.5,-352.0,-118.0,-902.0,2.0,23.25,54.75,0.0,-0.125,0.0,307.9375,-21.375,172.0,0.42987060546875,-0.88104248046875,-0.022705078125,-0.1961669921875,8.0,9.0,6.0,-358.0,-126.0,-904.0,0,0.0,0.0,
251,9.321953058242798,0.03426194190979004,29.18690372638391,26.925688043242932,103448.5,-351.0,-116.0,-907.0,1.6875,23.25,54.375,0.1875,-0.125,-0.0625,308.0625,-21.375,172.0,0.4290771484375,-0.88140869140625,-0.02252197265625,-0.19622802734375,7.0,9.0,-3.0,-358.0,-126.0,-904.0,0,0.0,0.0,
252,9.357076644897461,0.035123586654663086,28.470896489930016,26.931488280308034,103448.5,-351.0,-116.0,-896.0,2.0,22.5625,55.5625,-0.0625,-0.125,-0.0625,308.0625,-21.375,172.0,0.42901611328125,-0.8814697265625,-0.02252197265625,-0.19622802734375,7.0,10.0,6.0,-358.0,-126.0,-904.0,0,0.0,0.0,
253,9.391989469528198,0.034912824630737305,28.642769829617237,26.937849623963572,103448.5,-350.0,-116.0,-900.0,2.0,22.5625,55.5625,0.125,-0.1875,0.0625,308.0625,-21.375,172.0,0.42901611328125,-0.8814697265625,-0.02252197265625,-0.19622802734375,7.0,9.0,3.0,-358.0,-126.0,-904.0,0,0.0,0.0,
254,9.426267623901367,0.034278154373168945,29.173099260640036,26.945977998328235,103448.5,-350.0,-115.0,-907.0,2.0,22.1875,54.0,0.125,-0.125,0.0625,308.0625,-21.375,172.0,0.4288330078125,-0.88153076171875,-0.0224609375,-0.19622802734375,8.0,7.0,2.0,-358.0,-126.0,-904.0,0,0.0,0.0,
255,9.459770441055298,0.033502817153930664,29.848236206687968,26.95625666488722,103448.5,-350.0,-116.0,-898.0,1.6875,21.5,54.0,0.0,-0.1875,-0.0625,308.0625,-21.375,172.0,0.42889404296875,-0.88153076171875,-0.0224609375,-0.19622802734375,8.0,7.0,5.0,-358.0,-126.0,-904.0,0,0.0,0.0,
256,9.492774248123169,0.033003807067871094,30.299534776201348,26.96788033810181,103448.5,-349.0,-117.0,-899.0,1.6875,21.5,54.0,0.125,-0.375,-0.0625,308.0625,-21.375,172.0,0.42889404296875,-0.88153076171875,-0.0224609375,-0.19622802734375,8.0,8.0,4.0,-358.0,-126.0,-904.0,0,0.0,0.0,
257,9.531604766845703,0.03883051872253418,25.75293951506444,26.962930827129657,103452.75,-351.0,-117.0,-900.0,2.375,21.5,54.0,0.0,-0.1875,0.0625,308.0625,-21.375,172.0,0.42889404296875,-0.88153076171875,-0.0224609375,-0.19622802734375,7.0,8.0,3.0,-358.0,-126.0,-904.0,0,0.0,0.0,
