Index,Time,Difference,Hz,AveHz,0x6103 Pressure,0x6103 Acceleration-X,0x6103 Acceleration-Y,0x6103 Acceleration-Z,0x6103 Magnetic-X,0x6103 Magnetic-Y,0x6103 Magnetic-Z,0x6103 Angular-Vel-X,0x6103 Angular-Vel-Y,0x6103 Angular-Vel-Z,0x6103 Heading,0x6103 Roll,0x6103 Pitch,0x6103 Quaternion-X,0x6103 Quaternion-Y,0x6103 Quaternion-Z,0x6103 Quaternion-W,0x6103 Linear-Acceleration-X,0x6103 Linear-Acceleration-Y,0x6103 Linear-Acceleration-Z,0x6103 Gravity-X,0x6103 Gravity-Y,0x6103 Gravity-Z,0x6103 Range,0x6103 Smoothed Range,0x6103 Velocity,
0,0.0012750625610351562,0.0012750625610351562,784.2752430815258,0.0,103439.75,1030.0,4.0,-4.0,-48.375,18.6875,-3.1875,1.4375,5.75,-3.4375,351.75,89.4375,0.4375,0.04473876953125,-0.70428466796875,0.05029296875,0.70672607421875,31.0,2.0,-11.0,980.0,-7.0,3.0,1303,1303.0,43919.41361256545,
1,0.04610109329223633,0.04482603073120117,22.308466390800685,21.69145954220581,103439.75,963.0,-29.0,-30.0,-47.6875,18.0,-2.0,-1.8125,4.0625,1.3125,352.0,89.375,0.3125,0.0443115234375,-0.7027587890625,0.04962158203125,0.70831298828125,-22.0,-19.0,-34.0,980.0,-6.0,8.0,1280,1280.0,-513.0947269884158,
2,0.09407520294189453,0.0479741096496582,20.844576528938763,21.259587409397334,103439.75,982.0,20.0,-3.0,-48.375,17.1875,-2.0,2.8125,-9.3125,7.0625,351.6875,89.3125,0.5625,0.04345703125,-0.70404052734375,0.0511474609375,0.70703125,2.0,30.0,-8.0,980.0,-10.0,4.0,1284,1284.0,83.37830611575505,
3,0.13703179359436035,0.04295659065246582,23.279314880697996,21.89272957252942,103439.75,1010.0,2.0,12.0,-48.0,16.75,-2.375,-5.875,-5.625,-5.4375,351.8125,89.375,179.375,0.04351806640625,-0.705810546875,0.0504150390625,0.70526123046875,29.0,12.0,12.0,980.0,-9.0,0.0,1256,1256.0,-651.8208166595439,
4,0.170060396194458,0.033028602600097656,30.27678803453354,23.52105539861346,103437.0,973.0,-25.0,12.0,-48.0,16.75,-2.375,-6.0,0.3125,-0.5,352.25,89.5625,179.5625,0.04248046875,-0.706298828125,0.04766845703125,0.70501708984375,-7.0,-18.0,13.0,980.0,-7.0,-1.0,1266,1266.0,302.76788034533536,
5,0.20109105110168457,0.031030654907226562,32.22619706189686,24.864358570942464,103437.0,985.0,-15.0,1.0,-47.6875,18.0,-2.0,1.3125,6.8125,0.1875,352.25,89.5,0.4375,0.042236328125,-0.70556640625,0.0477294921875,0.70574951171875,4.0,-7.0,0.0,980.0,-7.0,0.0,1214,1214.0,-1675.7622472186367,
6,0.23172855377197266,0.030637502670288086,32.63973603729096,25.892363726155935,103437.0,981.0,-22.0,-13.0,-48.375,19.5,-2.0,2.6875,10.875,-0.5,352.1875,89.375,0.4375,0.0426025390625,-0.70361328125,0.04827880859375,0.7076416015625,0.0,-15.0,-19.0,980.0,-7.0,6.0,1205,1205.0,-293.75762433561863,
7,0.2638978958129883,0.032169342041015625,31.085497450492113,26.52541043737826,103437.0,954.0,-17.0,-23.0,-48.375,19.5,-2.0,0.9375,3.0,3.9375,352.0,89.25,0.5,0.0423583984375,-0.702880859375,0.04913330078125,0.7083740234375,-26.0,-8.0,-31.0,980.0,-8.0,8.0,1322,1322.0,3637.0032017075773,
8,0.29640793800354004,0.03251004219055176,30.759726306680257,26.98983048120815,103437.0,986.0,0.0,-17.0,-47.6875,19.75,-2.75,1.5625,-1.375,3.0,351.875,89.1875,0.625,0.04180908203125,-0.70318603515625,0.050048828125,0.7080078125,6.0,14.0,-19.0,980.0,-10.0,7.0,1247,1247.0,-2306.9794730010194,
9,0.33824777603149414,0.0418398380279541,23.900666138618377,26.60771374639286,103437.0,971.0,-16.0,4.0,-48.375,18.6875,-3.1875,-2.3125,-8.6875,-0.6875,351.875,89.375,0.5625,0.0423583984375,-0.70477294921875,0.04986572265625,0.70635986328125,-8.0,-6.0,1.0,980.0,-10.0,2.0,1410,1410.0,3895.8085805947953,
10,0.38880085945129395,0.050553083419799805,19.781187068172706,25.72010775416695,103437.0,983.0,-25.0,9.0,-48.375,19.5,-2.375,-1.25,3.0,-2.5,352.125,89.4375,0.5,0.04150390625,-0.70574951171875,0.04840087890625,0.70556640625,3.0,-16.0,9.0,980.0,-9.0,0.0,1424,1424.0,276.9366189544179,
11,0.4364051818847656,0.04760432243347168,21.006495815532862,25.20593351456718,103437.0,941.0,-2.0,8.0,-48.0,19.5,-3.1875,6.8125,-1.8125,5.875,351.75,89.25,0.6875,0.04205322265625,-0.7052001953125,0.05072021484375,0.7059326171875,-39.0,9.0,7.0,980.0,-11.0,1.0,1205,1205.0,-4600.422583601697,
12,0.4835641384124756,0.04715895652770996,21.204879701110723,24.815736004319067,103437.0,992.0,2.0,-5.0,-48.0,19.5,-2.375,-0.875,0.25,-1.3125,351.625,89.1875,0.6875,0.04241943359375,-0.70477294921875,0.0516357421875,0.706298828125,11.0,15.0,-8.0,980.0,-12.0,2.0,1284,1284.0,1675.1854963877472,
13,0.5279474258422852,0.04438328742980957,22.531003400355615,24.623663955288453,103437.0,1002.0,-8.0,0.0,-48.0,18.6875,-2.375,0.3125,-0.3125,-1.9375,351.6875,89.25,0.625,0.04278564453125,-0.70489501953125,0.05120849609375,0.7061767578125,21.0,3.0,-2.0,980.0,-11.0,2.0,1233,1233.0,-1149.0811734181364,
14,0.5733151435852051,0.04536771774291992,22.042105041884323,24.419379387838106,103436.0,987.0,-5.0,0.0,-48.0,18.0,-2.75,2.5625,-0.4375,2.0,351.5625,89.25,0.6875,0.0433349609375,-0.70489501953125,0.05194091796875,0.7060546875,7.0,6.0,-3.0,980.0,-11.0,2.0,1400,1400.0,3681.031541994682,
15,0.621509313583374,0.048194169998168945,20.749397697646693,24.134795202852235,103436.0,988.0,-4.0,2.0,-49.875,18.6875,-3.5625,-1.875,-0.375,-0.8125,351.5625,89.25,0.6875,0.043212890625,-0.705078125,0.05206298828125,0.70587158203125,8.0,7.0,0.0,980.0,-12.0,1.0,1256,1256.0,-2987.9132684611236,
16,0.6673436164855957,0.04583430290222168,21.817720281102563,23.975654527513342,103436.0,954.0,-13.0,8.0,-49.875,18.6875,-3.5625,-0.125,4.375,-2.125,351.625,89.25,0.625,0.04315185546875,-0.70477294921875,0.0516357421875,0.70623779296875,-26.0,-1.0,6.0,980.0,-11.0,2.0,1391,1391.0,2945.392237948846,
17,0.7120535373687744,0.04470992088317871,22.366400571651017,23.87460929246905,103436.0,1017.0,-13.0,-10.0,-48.0,18.25,-3.1875,0.5625,1.5,-0.9375,351.5625,89.25,0.5625,0.04412841796875,-0.70343017578125,0.05181884765625,0.70745849609375,36.0,-3.0,-17.0,980.0,-10.0,6.0,1275,1275.0,-2594.5024663115178,
18,0.7658584117889404,0.053804874420166016,18.585676684066396,23.503038842329175,103436.0,938.0,-5.0,20.0,-47.6875,19.0625,-4.375,-0.4375,-9.625,7.125,351.5,89.1875,0.75,0.0426025390625,-0.70538330078125,0.0521240234375,0.70562744140625,-41.0,7.0,19.0,980.0,-13.0,1.0,1762,1762.0,9051.224545140336,
19,0.8100316524505615,0.044173240661621094,22.63813985621451,23.455873535953735,103436.0,982.0,-10.0,12.0,-48.0,18.25,-2.75,0.75,7.25,-7.0,351.4375,89.25,0.6875,0.0430908203125,-0.70587158203125,0.05303955078125,0.70550537109375,0.0,11.0,15.0,980.0,-13.0,0.0,1766,1766.0,90.55255942485805,
20,0.8605077266693115,0.05047607421875,19.81136638452237,23.242092290573808,103436.0,971.0,-33.0,-4.0,-49.1875,19.0625,-1.1875,2.1875,7.625,-3.5,351.625,89.3125,0.5,0.0447998046875,-0.70330810546875,0.051513671875,0.70758056640625,13.0,-24.0,-18.0,980.0,-8.0,6.0,1748,1748.0,-356.6045949214027,
21,0.9129600524902344,0.05245232582092285,19.06493152303853,23.002101726925922,103444.5,951.0,12.0,16.0,-48.375,18.0,-4.0,2.0625,-4.6875,5.875,351.125,89.125,0.75,0.0445556640625,-0.7041015625,0.05450439453125,0.70660400390625,-29.0,26.0,11.0,980.0,-13.0,4.0,1799,1799.0,972.3115076749651,
22,0.9583547115325928,0.0453946590423584,22.029023261676794,22.956009643671273,103444.5,1003.0,-2.0,-4.0,-48.75,18.0,-3.5625,-3.25,-0.4375,-5.875,351.25,89.1875,0.6875,0.04449462890625,-0.704345703125,0.0537109375,0.7064208984375,23.0,9.0,-8.0,980.0,-12.0,3.0,1527,1527.0,-5991.894327176088,
23,1.0021679401397705,0.043813228607177734,22.82415680811467,22.950245242122026,103444.5,982.0,-13.0,9.0,-47.6875,17.5625,-3.1875,-1.6875,-3.375,0.4375,351.5,89.375,0.5625,0.0445556640625,-0.70550537109375,0.05206298828125,0.7054443359375,2.0,-3.0,8.0,980.0,-10.0,0.0,1813,1813.0,6527.708847120795,
24,1.0483765602111816,0.04620862007141113,21.640983834933675,22.892537768266696,103444.5,985.0,-4.0,-2.0,-48.375,18.6875,-2.75,2.4375,4.0,0.5625,351.4375,89.3125,0.625,0.04461669921875,-0.70513916015625,0.0526123046875,0.70574951171875,4.0,6.0,-4.0,980.0,-11.0,1.0,1341,1341.0,-10214.544370088694,
25,1.0894412994384766,0.04106473922729492,24.35179228741625,22.947542022581285,103444.5,998.0,-4.0,-2.0,-48.75,17.5625,-3.1875,-1.875,4.0625,-1.0,351.4375,89.3125,0.625,0.04461669921875,-0.70440673828125,0.052490234375,0.7064208984375,18.0,5.0,-6.0,980.0,-10.0,3.0,1410,1410.0,1680.2736678317212,
26,1.1299564838409424,0.04051518440246582,24.682104123389806,23.00973565957242,103444.5,973.0,-5.0,-1.0,-47.6875,18.25,-3.1875,1.125,-0.6875,1.75,351.5,89.25,0.625,0.0440673828125,-0.7037353515625,0.05242919921875,0.7071533203125,-7.0,6.0,-6.0,980.0,-11.0,5.0,1771,1771.0,8910.23958854372,
27,1.1805694103240967,0.0506129264831543,19.757798441724844,22.87031983370449,103444.5,999.0,-13.0,-6.0,-48.375,19.5,-3.1875,-1.6875,0.0,-1.625,351.4375,89.25,0.625,0.04443359375,-0.70391845703125,0.0528564453125,0.7069091796875,19.0,-2.0,-11.0,980.0,-11.0,4.0,1400,1400.0,-7330.143221879916,
28,1.2272531986236572,0.04668378829956055,21.42071233772203,22.815177855231102,103444.5,967.0,-17.0,17.0,-48.375,19.5,-3.1875,-2.375,-5.9375,3.375,351.5,89.25,0.6875,0.0433349609375,-0.705322265625,0.05224609375,0.70562744140625,-12.0,-5.0,15.0,980.0,-12.0,1.0,1400,1400.0,0.0,
29,1.271575927734375,0.04432272911071777,22.56178759890911,22.806345549235605,103444.5,935.0,1.0,18.0,-48.75,19.5,-2.75,4.875,-1.6875,4.3125,351.25,89.0625,179.0625,0.04278564453125,-0.705810546875,0.05389404296875,0.705078125,-44.0,16.0,18.0,980.0,-15.0,0.0,1752,1752.0,7941.749234816006,
30,1.3173213005065918,0.0457453727722168,21.860134466044716,22.773487370517078,103434.75,987.0,-27.0,2.0,-47.6875,19.0625,-2.75,-1.3125,8.5,-5.9375,351.25,89.125,0.75,0.04400634765625,-0.7042236328125,0.053955078125,0.70654296875,7.0,-13.0,-1.0,980.0,-13.0,4.0,1429,1429.0,-7060.823432532444,
31,1.3623542785644531,0.04503297805786133,22.20594868754037,22.754727230471563,103434.75,948.0,-18.0,-4.0,-48.375,18.6875,-2.75,3.3125,-4.75,7.9375,351.0625,89.0,0.875,0.04364013671875,-0.70391845703125,0.054931640625,0.706787109375,-20.0,7.0,-1.0,980.0,-15.0,5.0,1776,1776.0,7705.464194576508,
32,1.4067680835723877,0.04441380500793457,22.515521915344767,22.747175155366243,103434.75,975.0,9.0,1.0,-48.75,18.25,-4.0,1.375,0.5,-1.3125,350.875,88.9375,1.0,0.043701171875,-0.7044677734375,0.05621337890625,0.7061767578125,-1.0,23.0,-1.0,980.0,-17.0,3.0,1766,1766.0,-225.15521915344766,
33,1.4508955478668213,0.044127464294433594,22.66162391130514,22.744573204127782,103434.75,1001.0,-21.0,-16.0,-48.375,19.5,-3.1875,-4.0,0.125,-3.9375,351.25,89.125,0.75,0.0443115234375,-0.7037353515625,0.05401611328125,0.70703125,20.0,-14.0,-15.0,980.0,-13.0,5.0,1313,1313.0,-10265.715631821227,
34,1.496159553527832,0.04526400566101074,22.092609467424452,22.724849044228304,103434.75,982.0,-22.0,15.0,-48.375,18.6875,-4.0,-1.0625,-3.0,1.75,351.25,89.125,0.75,0.04376220703125,-0.70428466796875,0.05364990234375,0.70648193359375,1.0,-8.0,-2.0,980.0,-13.0,3.0,1270,1270.0,-949.9822070992515,
35,1.5454158782958984,0.049256324768066406,20.30196131580476,22.647625465446787,103434.75,984.0,-22.0,-12.0,-48.75,18.0,-2.75,3.375,0.9375,3.625,351.125,89.0,0.875,0.04364013671875,-0.70355224609375,0.05474853515625,0.70721435546875,3.0,-6.0,-18.0,980.0,-15.0,6.0,1382,1382.0,2273.819667370133,
36,1.5931205749511719,0.04770469665527344,20.96229658950062,22.59715966640088,103434.75,973.0,4.0,21.0,-48.375,18.0,-2.75,2.1875,-5.4375,4.625,350.625,88.8125,1.125,0.043212890625,-0.705322265625,0.0574951171875,0.70526123046875,-6.0,24.0,20.0,980.0,-19.0,1.0,1382,1382.0,0.0,
37,1.6394848823547363,0.04636430740356445,21.56831528390567,22.568064151258387,103434.75,988.0,-29.0,4.0,-48.375,17.1875,-2.375,-2.5,2.9375,-2.875,350.8125,88.875,1.0625,0.04315185546875,-0.70489501953125,0.056396484375,0.70574951171875,8.0,-11.0,2.0,980.0,-18.0,2.0,1471,1471.0,1919.5800602676047,
38,1.6873347759246826,0.04784989356994629,20.89868807206884,22.52072353524242,103436.5,997.0,-6.0,0.0,-47.6875,18.25,-2.75,3.5625,11.6875,1.1875,350.875,88.8125,1.0,0.04302978515625,-0.7027587890625,0.05645751953125,0.7078857421875,17.0,11.0,-7.0,980.0,-18.0,8.0,1195,1195.0,-5768.037907891,
39,1.7323837280273438,0.04504895210266113,22.198074612726185,22.51233336416124,103436.5,1001.0,-41.0,-29.0,-48.0,19.0625,-3.5625,4.125,14.0625,-3.5625,350.75,88.5,0.9375,0.04461669921875,-0.6988525390625,0.05731201171875,0.7115478515625,21.0,-25.0,-48.0,980.0,-16.0,18.0,1527,1527.0,7369.7607714250935,
40,1.7787144184112549,0.04633069038391113,21.583965007075776,22.488151884285024,103436.5,941.0,12.0,-1.0,-48.375,18.25,-3.1875,2.4375,-10.875,8.5,350.375,88.375,1.1875,0.04376220703125,-0.69940185546875,0.0595703125,0.71087646484375,-38.0,33.0,-19.0,980.0,-20.0,17.0,1363,1363.0,-3539.7702611604273,
41,1.82171630859375,0.04300189018249512,23.254791725575643,22.50624853419104,103436.5,932.0,24.0,-13.0,-48.375,18.25,-3.1875,11.4375,-12.125,-11.6875,350.25,88.6875,1.125,0.04583740234375,-0.70220947265625,0.06036376953125,0.70794677734375,-48.0,44.0,-23.0,980.0,-19.0,9.0,1920,1920.0,12952.918991145634,
42,1.87017822265625,0.0484619140625,20.634760705289672,22.45775268431187,103436.5,29.0,8.0,5.0,-48.375,19.0625,-2.75,65.875,5.0,-120.5,351.25,87.3125,-2.5,0.0841064453125,-0.69683837890625,0.0540771484375,0.71026611328125,-950.0,-34.0,-9.0,979.0,43.0,14.0,1400,1400.0,-10730.07556675063,
43,1.9182615280151367,0.04808330535888672,20.797239136039984,22.41613011156667,103436.5,24.0,7.0,2.0,-49.1875,17.5625,-5.1875,65.625,-0.5625,-120.5625,353.6875,81.5625,-85.6875,0.1409912109375,-0.68896484375,0.03912353515625,0.70989990234375,-945.0,-135.0,-8.0,970.0,143.0,10.0,1813,1813.0,8589.259763184515,
44,1.9633615016937256,0.04509997367858887,22.172961942874664,22.410544345523068,103436.5,26.0,9.0,0.0,-50.25,13.0625,-4.75,65.625,-6.3125,-120.6875,355.875,76.875,-89.9375,0.18475341796875,-0.68255615234375,0.025390625,0.7066650390625,-922.0,-232.0,8.0,950.0,241.0,-3.0,1504,1504.0,-6851.445240348271,
45,2.0084941387176514,0.04513263702392578,22.156914949815107,22.404845069018137,103436.5,28.0,10.0,4.0,-51.375,8.5625,-5.6875,64.0,-11.8125,-120.5,358.75,71.0,-93.9375,0.2230224609375,-0.67578125,0.01104736328125,0.69903564453125,-899.0,-306.0,26.0,927.0,317.0,-22.0,1457,1457.0,-1041.3750026413102,
46,2.057431221008301,0.048937082290649414,20.434401750001218,22.357977039668153,103445.5,27.0,10.0,-4.0,-51.75,1.875,-5.6875,61.0,-18.25,-120.5625,1.9375,65.125,-97.375,0.29132080078125,-0.66497802734375,-0.01171875,0.68756103515625,-862.0,-398.0,48.0,890.0,408.0,-53.0,1256,1256.0,-4107.314751750245,
47,2.105388641357422,0.047957420349121094,20.85183049297035,22.323669405614996,103445.5,30.0,12.0,-15.0,-51.75,-3.0625,-6.0,56.6875,-28.625,-120.6875,5.5,59.1875,-100.6875,0.34246826171875,-0.6558837890625,-0.0323486328125,0.67193603515625,-812.0,-480.0,77.0,852.0,476.0,-84.0,1139,1139.0,-2439.664167677531,
48,2.154029369354248,0.04864072799682617,20.558902820394678,22.28381872731374,103445.5,29.0,14.0,-42.0,-51.75,-8.375,-4.75,52.6875,-45.875,-121.0,9.9375,53.0625,-104.125,0.3907470703125,-0.6485595703125,-0.05670166015625,0.6507568359375,-754.0,-555.0,95.0,796.0,555.0,-132.0,933,933.0,-4235.133981001304,
49,2.201956033706665,0.04792666435241699,20.86521174615335,22.252942043314007,103445.5,34.0,16.0,-85.0,-50.1875,-14.0,-3.1875,54.375,-68.4375,-120.875,14.25,47.9375,-107.3125,0.4281005859375,-0.64532470703125,-0.07861328125,0.62774658203125,-693.0,-610.0,110.0,728.0,626.0,-195.0,827,827.0,-2211.712445092255,
50,2.245131254196167,0.04317522048950195,23.16143354133304,22.27041287967001,103445.5,37.0,24.0,-158.0,-49.75,-18.375,0.375,70.1875,-117.5625,-121.5,21.4375,40.875,-112.625,0.4732666015625,-0.64923095703125,-0.11102294921875,0.58502197265625,-603.0,-659.0,127.0,641.0,684.0,-285.0,850,850.0,532.7129714506599,
51,2.2909438610076904,0.04581260681152344,21.82805279154003,22.26156688866537,103445.5,54.0,32.0,-252.0,-48.6875,-23.5,4.5,101.375,-183.4375,-122.375,29.6875,33.9375,-118.625,0.51025390625,-0.66217041015625,-0.140625,0.530517578125,-494.0,-680.0,137.0,548.0,713.0,-389.0,616,616.0,-5107.764353220367,
52,2.335207462310791,0.044263601303100586,22.59192588403221,22.26782880718602,103445.5,116.0,50.0,-454.0,-47.75,-29.0,12.875,166.875,-309.75,-117.8125,47.25,22.1875,-129.0625,0.554931640625,-0.69573974609375,-0.18292236328125,0.41778564453125,-254.0,-653.0,118.0,370.0,704.0,-572.0,321,321.0,-6664.618135789502,
53,2.3835067749023438,0.048299312591552734,20.70422841121126,22.23614405382653,103445.5,226.0,82.0,-535.0,-42.25,-31.25,28.5625,225.5625,-469.75,-94.5,284.125,4.5625,-141.4375,0.57958984375,-0.7442626953125,-0.23345947265625,0.23577880859375,147.0,-526.0,229.0,78.0,608.0,-764.0,2,2.0,-6604.648863176393,
54,2.488863468170166,0.05844831466674805,17.109133183765042,21.69665017410588,103435.75,1094.0,-11.0,-104.0,2.375,18.1875,52.6875,95.8125,1088.75,35.5,280.375,29.375,-174.6875,0.61859130859375,-0.7423095703125,0.130859375,0.22186279296875,612.0,-90.0,746.0,481.0,78.0,-850.0,0,0.0,-34.218266367530084,
55,2.5298831462860107,0.04101967811584473,24.378543321960603,21.740134551567184,103435.75,1075.0,-16.0,-106.0,-44.5625,17.6875,29.75,83.125,1080.3125,-22.1875,282.875,71.0625,-171.75,0.53680419921875,-0.6099853515625,0.36322021484375,0.455810546875,147.0,-61.0,208.0,927.0,45.0,-314.0,0,0.0,0.0,
56,2.574754238128662,0.04487109184265137,22.286063452761113,21.749648634698797,103435.75,1052.0,-49.0,-86.0,-54.375,15.5625,-19.25,119.4375,1066.3125,-98.6875,278.6875,56.625,-11.75,0.3587646484375,-0.3199462890625,0.571044921875,0.66546630859375,233.0,-159.0,-613.0,819.0,109.0,527.0,0,0.0,0.0,
57,2.6231062412261963,0.04835200309753418,20.681666444776457,21.72996240264931,103435.75,1008.0,-138.0,-68.0,-19.0,8.6875,-50.1875,227.625,1041.625,-201.6875,278.5625,5.4375,-17.3125,0.1451416015625,0.06146240234375,0.6439208984375,0.74871826171875,915.0,-429.0,-1000.0,93.0,290.0,931.0,0,0.0,0.0,
58,2.6688363552093506,0.0457301139831543,21.867428547594965,21.732317864596208,103435.75,303.0,-643.0,-767.0,-19.0,8.6875,-50.1875,386.625,985.6875,-314.1875,283.125,-34.5,-31.625,-0.007568359375,0.38641357421875,0.5732421875,0.72247314453125,859.0,-1066.0,-1454.0,-556.0,423.0,687.0,0,0.0,0.0,
59,2.721757173538208,0.05292081832885742,18.896155267022877,21.677172590419467,103435.75,-889.0,-242.0,391.0,56.5,-1.5,-10.25,-776.875,-856.0,52.875,285.0625,-34.125,-24.9375,-0.0343017578125,0.35205078125,0.56878662109375,0.7425537109375,-338.0,-585.0,-344.0,-551.0,342.0,735.0,0,0.0,0.0,
60,2.7739696502685547,0.05221247673034668,19.152510331286102,21.629652651099214,103435.75,233.0,469.0,1631.0,40.6875,9.0625,-40.75,19.8125,-75.0,33.6875,288.3125,-9.5,-26.5,0.13409423828125,0.20196533203125,0.5677490234375,0.78668212890625,396.0,37.0,766.0,-162.0,431.0,865.0,0,0.0,0.0,
61,2.823375701904297,0.04940605163574219,20.24043547079489,21.605342837957064,103428.5,-533.0,263.0,17.0,40.6875,9.0625,-40.75,-31.5,115.1875,0.8125,286.75,-15.75,-24.125,0.07928466796875,0.23388671875,0.5780029296875,0.77777099609375,-148.0,19.0,-595.0,-269.0,384.0,860.0,0,0.0,0.0,
62,2.87089467048645,0.04751896858215332,21.04422780707344,21.596055277602574,103428.5,-231.0,309.0,1175.0,32.25,0.75,-47.25,1.875,-12.4375,0.75,286.875,-14.25,-24.5,0.0909423828125,0.22540283203125,0.57745361328125,0.77935791015625,-63.0,-88.0,-61.0,-241.0,394.0,864.0,0,0.0,0.0,
63,2.91884183883667,0.04794716835021973,20.856289003257004,21.58390330087539,103428.5,-248.0,248.0,1017.0,35.5625,1.1875,-43.6875,-0.6875,-3.375,-0.4375,286.875,-14.3125,-24.4375,0.0904541015625,0.22564697265625,0.57757568359375,0.779296875,-5.0,-145.0,152.0,-242.0,393.0,864.0,0,0.0,0.0,
64,2.9657399654388428,0.04689812660217285,21.322813349940265,21.579774607963607,103428.5,-280.0,280.0,868.0,34.0625,1.5625,-44.5,0.5,1.25,0.375,286.875,-14.3125,-24.4375,0.0902099609375,0.2259521484375,0.57763671875,0.77923583984375,-51.0,-96.0,-6.0,-243.0,393.0,864.0,0,0.0,0.0,
65,3.0081255435943604,0.04238557815551758,23.592930508836865,21.608140703573348,103428.5,-280.0,279.0,879.0,34.1875,0.75,-44.0,0.5,-0.1875,0.125,287.0,-14.5625,-23.875,0.08538818359375,0.224365234375,0.57733154296875,0.7803955078125,-28.0,-96.0,22.0,-246.0,384.0,867.0,0,0.0,0.0,
66,3.051798105239868,0.04367256164550781,22.897672184128925,21.62659446137,103428.5,-279.0,288.0,886.0,34.5,2.5625,-46.375,0.125,-0.0625,0.0,287.125,-14.875,-23.0625,0.07855224609375,0.2220458984375,0.576904296875,0.7821044921875,-20.0,-92.0,12.0,-251.0,371.0,871.0,0,0.0,0.0,
67,3.100748062133789,0.0489499568939209,20.429027183151415,21.607689066455062,103428.5,-271.0,277.0,896.0,35.25,3.0,-44.375,-0.0625,0.3125,0.0625,287.3125,-15.125,-22.375,0.07257080078125,0.22021484375,0.57647705078125,0.78350830078125,-27.0,-71.0,7.0,-256.0,360.0,875.0,0,0.0,0.0,
68,3.1484603881835938,0.04771232604980469,20.958944633220067,21.597857878475796,103428.5,-275.0,279.0,899.0,34.5,2.1875,-46.0,-0.375,0.375,0.0625,287.375,-15.3125,-21.9375,0.06884765625,0.21917724609375,0.576171875,0.78436279296875,-21.0,-66.0,7.0,-259.0,353.0,877.0,0,0.0,0.0,
69,3.196500778198242,0.04804039001464844,20.815817683725733,21.586104552395238,103412.0,-277.0,283.0,891.0,34.875,3.0,-45.0625,0.0,0.0,0.0625,287.4375,-15.5,-21.4375,0.06494140625,0.2178955078125,0.57586669921875,0.7852783203125,-21.0,-56.0,3.0,-262.0,346.0,879.0,0,0.0,0.0,
70,3.243703842163086,0.04720306396484375,21.185065459835137,21.580268546748716,103412.0,-279.0,284.0,890.0,34.875,1.875,-45.5625,-0.1875,0.0,0.0,287.5625,-15.625,-21.0625,0.06195068359375,0.21685791015625,0.57562255859375,0.7860107421875,-17.0,-53.0,6.0,-264.0,340.0,880.0,0,0.0,0.0,
71,3.291414499282837,0.04771065711975098,20.95967778205314,21.57127278119183,103412.0,-283.0,285.0,888.0,35.6875,1.5,-45.0625,0.0625,0.4375,0.0625,287.5625,-15.6875,-20.8125,0.05950927734375,0.216064453125,0.575439453125,0.78656005859375,-16.0,-46.0,-1.0,-266.0,335.0,882.0,0,0.0,0.0,
72,3.3374814987182617,0.046066999435424805,21.707513236275936,21.57315329767405,103412.0,-283.0,284.0,894.0,34.1875,1.5,-44.75,-0.375,0.3125,-0.0625,287.625,-15.8125,-20.625,0.057861328125,0.21551513671875,0.5753173828125,0.78692626953125,-16.0,-45.0,6.0,-267.0,332.0,883.0,0,0.0,0.0,
73,3.3912904262542725,0.05380892753601074,18.58427673234644,21.525729390457872,103412.0,-282.0,288.0,893.0,34.875,1.875,-46.0,-0.0625,0.3125,0.0,287.6875,-15.875,-20.375,0.0557861328125,0.21478271484375,0.57513427734375,0.78741455078125,-12.0,-41.0,0.0,-268.0,328.0,884.0,0,0.0,0.0,
74,3.438356399536133,0.04706597328186035,21.246771930357784,21.521910878692886,103412.0,-281.0,288.0,894.0,34.1875,1.5,-45.5625,0.1875,0.125,0.0625,287.6875,-15.9375,-20.1875,0.0545654296875,0.21435546875,0.57501220703125,0.78765869140625,-12.0,-39.0,3.0,-269.0,326.0,884.0,0,0.0,0.0,
75,3.486349582672119,0.04799318313598633,20.836292461922124,21.512472636928198,103412.0,-279.0,289.0,891.0,34.875,0.6875,-45.5625,-0.125,0.125,0.125,287.75,-16.0,-20.0625,0.05328369140625,0.2138671875,0.574951171875,0.7879638671875,-10.0,-35.0,4.0,-270.0,323.0,885.0,0,0.0,0.0,
76,3.5353384017944336,0.04898881912231445,20.412821086852837,21.49723487896509,103412.0,-280.0,288.0,892.0,34.875,1.5,-45.1875,0.125,-0.0625,0.0,287.75,-16.0,-19.9375,0.05218505859375,0.2135009765625,0.5748291015625,0.7882080078125,-9.0,-31.0,7.0,-271.0,321.0,885.0,0,0.0,0.0,
77,3.5813748836517334,0.046036481857299805,21.721903144113398,21.500122858260312,103400.0,-281.0,287.0,889.0,34.1875,1.5,-45.5625,-0.125,-0.1875,0.0625,287.8125,-16.0625,-19.8125,0.05120849609375,0.213134765625,0.57476806640625,0.7884521484375,-8.0,-31.0,5.0,-271.0,319.0,886.0,0,0.0,0.0,
78,3.631347894668579,0.0499730110168457,20.010801423650538,21.47962747235453,103400.0,-282.0,285.0,897.0,36.0,1.5,-46.375,0.0625,-16.0,0.125,287.8125,-16.0625,-19.75,0.05072021484375,0.21295166015625,0.57470703125,0.78851318359375,-8.0,-29.0,2.0,-272.0,318.0,886.0,0,0.0,0.0,
79,3.674818992614746,0.04347109794616699,23.00378981083853,21.497657478848797,103400.0,-280.0,285.0,891.0,36.0,1.5,-46.375,0.0625,0.3125,0.0625,287.8125,-16.125,-19.625,0.0498046875,0.212646484375,0.57464599609375,0.78875732421875,-7.0,-30.0,4.0,-272.0,316.0,887.0,0,0.0,0.0,
80,3.721863031387329,0.04704403877258301,21.256678339930165,21.494611522600792,103400.0,-281.0,286.0,889.0,35.25,1.5,-45.1875,-0.0625,0.1875,-0.0625,287.8125,-16.125,-19.5,0.049072265625,0.21234130859375,0.5745849609375,0.78887939453125,-8.0,-28.0,2.0,-273.0,315.0,887.0,0,0.0,0.0,
81,3.76886248588562,0.046999454498291016,21.276842692639374,21.491895844792634,103400.0,-279.0,285.0,889.0,33.75,1.0625,-45.0625,0.0,0.125,0.125,287.875,-16.1875,-19.4375,0.04840087890625,0.212158203125,0.57452392578125,0.7890625,-5.0,-28.0,2.0,-273.0,313.0,887.0,0,0.0,0.0,
82,3.813422679901123,0.04456019401550293,22.441553994403396,21.50299268743169,103400.0,-277.0,284.0,891.0,34.1875,1.5,-45.5625,-0.375,0.25,-0.0625,287.875,-16.1875,-19.375,0.04791259765625,0.21197509765625,0.574462890625,0.7891845703125,-7.0,-25.0,0.0,-274.0,312.0,888.0,0,0.0,0.0,
83,3.860306739807129,0.04688405990600586,21.32921086622662,21.500882078647173,103400.0,-280.0,286.0,882.0,34.875,2.5625,-46.0,0.0625,0.125,-0.0625,287.875,-16.1875,-19.3125,0.04742431640625,0.2117919921875,0.57440185546875,0.78924560546875,-5.0,-25.0,-5.0,-274.0,312.0,888.0,0,0.0,0.0,
84,3.9013559818267822,0.04104924201965332,24.360985752702224,21.530975484238585,103400.0,-282.0,288.0,886.0,35.6875,1.5,-46.75,-0.25,0.25,0.0625,287.875,-16.25,-19.25,0.04693603515625,0.21160888671875,0.57440185546875,0.78936767578125,-8.0,-22.0,-1.0,-274.0,311.0,888.0,0,0.0,0.0,
85,3.946469306945801,0.045113325119018555,22.16639978014893,21.538239218128385,103399.75,-281.0,287.0,884.0,35.6875,1.875,-45.0625,-0.25,0.0625,0.125,287.875,-16.25,-19.1875,0.04644775390625,0.21142578125,0.5743408203125,0.78948974609375,-6.0,-22.0,-4.0,-275.0,310.0,888.0,0,0.0,0.0,
86,3.991314172744751,0.044844865798950195,22.29909672342937,21.546787919443442,103399.75,-280.0,287.0,890.0,35.6875,1.0625,-46.0,0.0,0.0,-0.0625,287.875,-16.25,-19.1875,0.04608154296875,0.2113037109375,0.57427978515625,0.78955078125,-4.0,-22.0,1.0,-275.0,309.0,888.0,0,0.0,0.0,
87,4.038733959197998,0.04741978645324707,21.088243427370497,21.54140403377207,103399.75,-280.0,286.0,894.0,34.5,1.875,-46.0,0.125,-0.1875,-0.0625,287.9375,-16.3125,-19.125,0.04571533203125,0.211181640625,0.57427978515625,0.78961181640625,-4.0,-21.0,5.0,-275.0,308.0,889.0,0,0.0,0.0,
88,4.0814900398254395,0.042756080627441406,23.3884861597484,21.560753337955873,103399.75,-280.0,287.0,890.0,34.1875,1.5,-46.375,-0.125,0.3125,0.0625,287.9375,-16.3125,-19.0625,0.04541015625,0.2110595703125,0.57421875,0.7896728515625,-4.0,-20.0,1.0,-275.0,308.0,889.0,0,0.0,0.0,
89,4.1269190311431885,0.04542899131774902,22.012375159412837,21.565724776370597,103399.75,-281.0,288.0,895.0,34.875,2.1875,-46.375,-0.0625,-0.0625,0.125,287.9375,-16.3125,-19.0625,0.0450439453125,0.2109375,0.57421875,0.789794921875,-5.0,-18.0,6.0,-275.0,307.0,889.0,0,0.0,0.0,
90,4.174306869506836,0.04738783836364746,21.102460769072092,21.56046568052934,103399.75,-280.0,286.0,895.0,34.875,1.5,-44.75,0.0,0.0,0.0,287.9375,-16.3125,-19.0,0.04473876953125,0.2108154296875,0.57421875,0.78985595703125,-4.0,-19.0,5.0,-276.0,306.0,889.0,0,0.0,0.0,
91,4.222587823867798,0.048280954360961914,20.712100935779365,21.550765501105907,103399.75,-280.0,286.0,893.0,34.875,1.0625,-46.375,-0.0625,-0.0625,0.0,287.9375,-16.3125,-18.9375,0.04443359375,0.210693359375,0.57415771484375,0.7899169921875,-3.0,-19.0,4.0,-276.0,306.0,889.0,0,0.0,0.0,
92,4.272112846374512,0.04952502250671387,20.19181313576253,21.535011669477537,103399.75,-279.0,285.0,894.0,35.25,2.1875,-45.0625,0.125,0.125,0.125,287.9375,-16.375,-18.9375,0.044189453125,0.21063232421875,0.5740966796875,0.78997802734375,-2.0,-19.0,4.0,-276.0,305.0,889.0,0,0.0,0.0,
93,4.31971287727356,0.04760003089904785,21.00838972396556,21.529208686364846,103394.75,-280.0,288.0,896.0,35.25,2.1875,-45.0625,0.0625,0.0625,0.0625,287.9375,-16.375,-18.875,0.04400634765625,0.2105712890625,0.5740966796875,0.7900390625,-4.0,-16.0,6.0,-276.0,305.0,889.0,0,0.0,0.0,
94,4.367006301879883,0.04729342460632324,21.144588456516587,21.525043359689093,103394.75,-279.0,290.0,892.0,33.75,2.1875,-44.75,0.1875,0.0625,-0.0625,287.9375,-16.375,-18.875,0.04376220703125,0.21051025390625,0.5740966796875,0.79010009765625,-2.0,-14.0,2.0,-276.0,304.0,890.0,0,0.0,0.0,
95,4.408586502075195,0.0415802001953125,24.049908256880734,21.54885697610377,103394.75,-281.0,288.0,886.0,33.75,2.5625,-46.375,0.125,-0.1875,0.0625,287.9375,-16.375,-18.875,0.0435791015625,0.21044921875,0.5740966796875,0.79010009765625,-4.0,-16.0,-3.0,-277.0,304.0,890.0,0,0.0,0.0,
96,4.459365367889404,0.050778865814208984,19.693232291930773,21.527726947710573,103394.75,-281.0,286.0,889.0,35.25,3.0,-44.6875,-0.125,0.1875,-0.0625,288.0,-16.375,-18.8125,0.0433349609375,0.2103271484375,0.57403564453125,0.7901611328125,-4.0,-17.0,-1.0,-277.0,304.0,890.0,0,0.0,0.0,
97,4.505815029144287,0.04644966125488281,21.528682297868844,21.52773679624873,103394.75,-279.0,283.0,887.0,34.875,3.0,-46.375,0.0,-0.25,-0.0625,288.0,-16.375,-18.8125,0.04315185546875,0.21026611328125,0.57403564453125,0.79022216796875,-2.0,-19.0,-2.0,-277.0,303.0,890.0,0,0.0,0.0,
98,4.551379680633545,0.04556465148925781,21.94683745656997,21.531932485658626,103394.75,-279.0,288.0,881.0,34.1875,3.0,-46.25,0.0,0.125,0.0625,288.0,-16.375,-18.75,0.04296875,0.210205078125,0.57403564453125,0.79022216796875,-1.0,-14.0,-8.0,-277.0,303.0,890.0,0,0.0,0.0,
99,4.591763496398926,0.04038381576538086,24.76239505968757,21.56034388043731,103394.75,-278.0,285.0,891.0,35.25,3.6875,-45.5625,0.0,0.1875,0.0625,288.0,-16.4375,-18.75,0.0428466796875,0.21014404296875,0.573974609375,0.790283203125,0.0,-17.0,0.0,-277.0,302.0,890.0,0,0.0,0.0,
100,4.635498046875,0.04373455047607422,22.865217296495782,21.572654974456206,103394.75,-282.0,288.0,899.0,35.6875,3.0,-45.0625,-0.3125,0.0625,-0.0625,288.0,-16.4375,-18.75,0.0426025390625,0.21002197265625,0.573974609375,0.79034423828125,-4.0,-14.0,8.0,-277.0,302.0,890.0,0,0.0,0.0,
101,4.679384231567383,0.04388618469238281,22.786214090138643,21.584036488956915,103394.75,-280.0,288.0,899.0,36.0,3.6875,-45.0625,-0.125,0.1875,0.0625,288.0,-16.4375,-18.6875,0.04248046875,0.21002197265625,0.573974609375,0.79034423828125,-3.0,-13.0,8.0,-277.0,302.0,890.0,0,0.0,0.0,
102,4.7224836349487305,0.043099403381347656,23.20217732834731,21.598804333624198,103390.5,-281.0,286.0,896.0,35.25,3.6875,-45.0625,-0.0625,-0.1875,0.0,288.0,-16.4375,-18.6875,0.04229736328125,0.20989990234375,0.573974609375,0.7904052734375,-3.0,-15.0,5.0,-277.0,302.0,890.0,0,0.0,0.0,
103,4.765965223312378,0.04348158836364746,22.998239890335846,21.611571879749114,103390.5,-282.0,289.0,889.0,35.25,3.6875,-45.0625,-0.0625,-0.4375,0.0625,288.0,-16.4375,-18.6875,0.04217529296875,0.20989990234375,0.573974609375,0.7904052734375,-2.0,-14.0,3.0,-277.0,301.0,890.0,0,0.0,0.0,
104,4.8108391761779785,0.044873952865600586,22.284642563026328,21.61785006553137,103390.5,-280.0,286.0,882.0,33.375,3.0,-46.375,-0.1875,0.375,0.0,288.0,-16.4375,-18.6875,0.04205322265625,0.2098388671875,0.57391357421875,0.79046630859375,-3.0,-12.0,-2.0,-277.0,301.0,890.0,0,0.0,0.0,
105,4.8570191860198975,0.046180009841918945,21.65439122735463,21.618197494921294,103390.5,-280.0,287.0,886.0,34.875,3.0,-45.5625,0.1875,-0.125,0.0,288.0,-16.4375,-18.625,0.0418701171875,0.20977783203125,0.57391357421875,0.79046630859375,-3.0,-13.0,3.0,-278.0,301.0,890.0,0,0.0,0.0,
106,4.908427715301514,0.05140852928161621,19.45202506226145,21.59551003869447,103390.5,-280.0,287.0,883.0,34.875,3.0,-44.75,0.125,0.1875,0.0,288.0,-16.4375,-18.625,0.041748046875,0.209716796875,0.57391357421875,0.79052734375,-2.0,-13.0,0.0,-278.0,300.0,890.0,0,0.0,0.0,
107,4.953852891921997,0.0454251766204834,22.01422370582647,21.599349503187632,103390.5,-280.0,287.0,882.0,34.5,3.0,-44.75,0.0,0.125,0.0625,288.0,-16.4375,-18.625,0.0416259765625,0.20965576171875,0.57391357421875,0.79052734375,-2.0,-12.0,-2.0,-278.0,300.0,891.0,0,0.0,0.0,
108,4.9999470710754395,0.04609417915344238,21.694713266747012,21.600228655374597,103390.5,-282.0,289.0,897.0,35.25,3.0,-46.0,-0.0625,0.125,0.0,288.0,-16.4375,-18.625,0.0416259765625,0.2095947265625,0.57391357421875,0.79052734375,0.0,-13.0,-6.0,-278.0,300.0,891.0,0,0.0,0.0,
109,5.054321527481079,0.05437445640563965,18.390988454944466,21.565703607764405,103390.5,-280.0,287.0,886.0,35.25,1.0625,-45.5625,0.0,0.0,-0.0625,288.0,-16.4375,-18.625,0.0416259765625,0.2095947265625,0.57391357421875,0.79052734375,-3.0,-14.0,-2.0,-278.0,300.0,891.0,0,0.0,0.0,
110,5.111352443695068,0.05703091621398926,17.534349198386323,21.520722981191934,103394.0,-281.0,290.0,894.0,35.6875,1.875,-44.75,0.0625,-0.3125,0.0,288.0,-16.4375,-18.625,0.0416259765625,0.2095947265625,0.57391357421875,0.79052734375,-3.0,-10.0,3.0,-278.0,300.0,891.0,0,0.0,0.0,
111,5.16762375831604,0.05627131462097168,17.77104385663866,21.479891956408853,103394.0,-281.0,285.0,890.0,35.25,1.5,-44.75,0.0,-0.125,0.0625,288.0,-16.4375,-18.625,0.0416259765625,0.2095947265625,0.57391357421875,0.79052734375,-2.0,-12.0,3.0,-278.0,300.0,891.0,0,0.0,0.0,
112,5.207216501235962,0.039592742919921875,25.25715386838809,21.508612129612082,103394.0,-281.0,287.0,887.0,34.875,1.0625,-44.375,0.25,-0.125,0.0625,288.0,-16.4375,-18.625,0.0416259765625,0.2095947265625,0.57391357421875,0.79052734375,-3.0,-12.0,1.0,-278.0,300.0,891.0,0,0.0,0.0,
113,5.239299535751343,0.03208303451538086,31.16912147199144,21.56776859748585,103394.0,-283.0,289.0,895.0,35.25,1.5,-44.75,-0.0625,0.0625,-0.0625,288.0,-16.4375,-18.625,0.0416259765625,0.2095947265625,0.57391357421875,0.79052734375,-1.0,-14.0,0.0,-278.0,300.0,891.0,0,0.0,0.0,
114,5.267407417297363,0.028107881546020508,35.57720984282358,21.64252562382803,103394.0,-281.0,286.0,889.0,35.25,1.5,-44.75,0.25,-0.4375,0.0625,288.0,-16.4375,-18.625,0.0416259765625,0.2095947265625,0.57391357421875,0.79052734375,0.0,-11.0,1.0,-278.0,300.0,891.0,0,0.0,0.0,
115,5.294771671295166,0.027364253997802734,36.54402565040863,21.71953903573515,103394.0,-280.0,287.0,896.0,35.25,2.1875,-44.25,-0.1875,0.125,0.0625,288.0,-16.4375,-18.625,0.0416259765625,0.2095947265625,0.57391357421875,0.79052734375,-6.0,-13.0,-3.0,-278.0,300.0,891.0,0,0.0,0.0,
116,5.3315441608428955,0.03677248954772949,27.194242551949948,21.75729891762931,103394.0,-280.0,289.0,893.0,35.25,2.1875,-44.25,-0.125,0.0625,0.0625,288.0,-16.4375,-18.625,0.0416259765625,0.2095947265625,0.57391357421875,0.79052734375,-1.0,-11.0,2.0,-278.0,300.0,891.0,0,0.0,0.0,
117,5.3666229248046875,0.03507876396179199,28.507275829023115,21.801419931931978,103394.0,-280.0,286.0,889.0,34.1875,1.0625,-44.75,-0.1875,0.0625,0.125,288.0,-16.4375,-18.625,0.0416259765625,0.2095947265625,0.57391357421875,0.79052734375,-3.0,-13.0,4.0,-278.0,300.0,891.0,0,0.0,0.0,
118,5.41443657875061,0.04781365394592285,20.914527911441322,21.793587990872485,103394.0,-282.0,290.0,895.0,34.875,1.5,-44.75,-0.1875,0.0,0.0625,288.0,-16.4375,-18.625,0.0416259765625,0.2095947265625,0.57391357421875,0.79052734375,-2.0,-15.0,1.0,-278.0,300.0,891.0,0,0.0,0.0,
119,5.4666829109191895,0.0522463321685791,19.140099572413604,21.768227998428188,103392.0,-280.0,289.0,893.0,34.5,0.6875,-45.0625,-0.0625,0.125,0.0,288.0,-16.4375,-18.625,0.0416259765625,0.2095947265625,0.57391357421875,0.79052734375,-2.0,-10.0,2.0,-278.0,300.0,891.0,0,0.0,0.0,
120,5.525873899459839,0.059190988540649414,16.89446357722595,21.71602215022137,103392.0,-280.0,289.0,889.0,34.5,1.0625,-46.375,-0.25,0.25,-0.0625,288.0,-16.4375,-18.625,0.0416259765625,0.2095947265625,0.57391357421875,0.79052734375,-1.0,-15.0,-1.0,-278.0,300.0,891.0,0,0.0,0.0,
121,5.5804479122161865,0.054574012756347656,18.323739624290084,21.682847309643066,103392.0,-281.0,288.0,895.0,34.5,1.875,-45.5625,0.125,-0.25,0.0,288.0,-16.4375,-18.625,0.0416259765625,0.2095947265625,0.57391357421875,0.79052734375,-3.0,-11.0,4.0,-278.0,300.0,891.0,0,0.0,0.0,
122,5.661444902420044,0.08099699020385742,12.34613776984982,21.54926915350705,103392.0,-282.0,285.0,888.0,35.25,2.5625,-44.25,0.0,0.0,0.0625,288.0,-16.4375,-18.625,0.0416259765625,0.2095947265625,0.57391357421875,0.79052734375,-3.0,-11.0,5.0,-278.0,300.0,891.0,0,0.0,0.0,
123,5.728515386581421,0.06707048416137695,14.909688106528648,21.471531749415817,103392.0,-280.0,288.0,894.0,35.25,1.5,-45.0625,-0.125,-0.1875,-0.0625,288.0,-16.4375,-18.625,0.0416259765625,0.2095947265625,0.57391357421875,0.79052734375,-1.0,-12.0,3.0,-278.0,300.0,891.0,0,0.0,0.0,
124,5.7929651737213135,0.06444978713989258,15.515955046204157,21.405272823406992,103392.0,-279.0,288.0,884.0,34.1875,1.875,-46.0,0.375,-0.25,0.0,288.0,-16.4375,-18.625,0.0416259765625,0.2095947265625,0.57391357421875,0.79052734375,-1.0,-11.0,0.0,-278.0,300.0,891.0,0,0.0,0.0,
125,5.852615118026733,0.05964994430541992,16.76447499900076,21.35797373980488,103398.0,-280.0,286.0,889.0,35.6875,2.1875,-45.5625,0.0,-0.375,-0.125,288.0,-16.4375,-18.625,0.0416259765625,0.2095947265625,0.57391357421875,0.79052734375,-3.0,-13.0,-3.0,-278.0,300.0,891.0,0,0.0,0.0,
126,5.931823492050171,0.0792083740234375,12.624927759583896,21.241360294834326,103398.0,-280.0,286.0,894.0,34.5,1.5,-46.0,-0.125,0.1875,-0.0625,288.0,-16.4375,-18.625,0.0416259765625,0.2095947265625,0.57391357421875,0.79052734375,-1.0,-13.0,3.0,-278.0,300.0,891.0,0,0.0,0.0,
127,5.9829583168029785,0.05113482475280762,19.55614407273575,21.226957179916145,103398.0,-278.0,288.0,893.0,34.5,1.875,-46.375,-0.0625,0.0625,-0.0625,288.0,-16.4375,-18.625,0.0416259765625,0.2095947265625,0.57391357421875,0.79052734375,0.0,-11.0,2.0,-278.0,300.0,891.0,0,0.0,0.0,
128,6.028268337249756,0.045310020446777344,22.070173223043085,21.233295009292295,103398.0,-281.0,288.0,896.0,34.875,1.5,-45.5625,-0.25,0.0625,0.0625,288.0,-16.4375,-18.625,0.0416259765625,0.2095947265625,0.57391357421875,0.79052734375,-3.0,-12.0,5.0,-278.0,300.0,891.0,0,0.0,0.0,
129,6.073200941085815,0.04493260383605957,22.255554199542612,21.240858198401114,103398.0,-280.0,286.0,894.0,34.875,1.5,-45.5625,-0.0625,0.5,0.0625,288.0,-16.4375,-18.625,0.0416259765625,0.2095947265625,0.57391357421875,0.79052734375,-2.0,-14.0,3.0,-278.0,300.0,891.0,0,0.0,0.0,
130,6.116508483886719,0.04330754280090332,23.090665859230917,21.25395564192725,103398.0,-282.0,288.0,895.0,35.25,1.5,-44.75,0.3125,-0.1875,0.125,288.0,-16.4375,-18.625,0.0416259765625,0.2095947265625,0.57391357421875,0.79052734375,-2.0,-11.0,0.0,-278.0,300.0,891.0,0,0.0,0.0,
131,6.153740882873535,0.037232398986816406,26.85832842396455,21.287864161551855,103398.0,-281.0,287.0,891.0,34.1875,1.0625,-44.75,0.0,0.25,-0.0625,288.0,-16.4375,-18.625,0.0416259765625,0.2095947265625,0.57391357421875,0.79052734375,-3.0,-12.0,0.0,-278.0,300.0,891.0,0,0.0,0.0,
132,6.211344242095947,0.05760335922241211,17.3600986730462,21.25143847372048,103396.75,-280.0,287.0,889.0,34.5,1.0625,-45.5625,-0.0625,0.25,0.0625,288.0,-16.4375,-18.625,0.0416259765625,0.2095947265625,0.57391357421875,0.79052734375,-1.0,-13.0,-2.0,-278.0,300.0,891.0,0,0.0,0.0,
133,6.262670040130615,0.05132579803466797,19.483379475649862,21.23694832200135,103396.75,-279.0,290.0,895.0,34.875,1.875,-46.0,-0.0625,0.125,-0.0625,288.0,-16.4375,-18.625,0.0416259765625,0.2095947265625,0.57391357421875,0.79052734375,0.0,-10.0,4.0,-278.0,300.0,891.0,0,0.0,0.0,
134,6.338783264160156,0.07611322402954102,13.138321398813439,21.139703696392914,103396.75,-280.0,289.0,893.0,34.875,1.5,-45.0625,-0.0625,0.375,-0.0625,288.0,-16.4375,-18.625,0.04156494140625,0.20965576171875,0.57391357421875,0.79052734375,-2.0,-11.0,2.0,-278.0,300.0,891.0,0,0.0,0.0,
135,6.401974439620972,0.06319117546081543,15.824994434865285,21.087244454539352,103396.75,-280.0,288.0,888.0,33.75,2.1875,-45.0625,-0.3125,0.3125,0.0625,288.0,-16.4375,-18.625,0.04156494140625,0.20965576171875,0.57391357421875,0.79052734375,-1.0,-11.0,-2.0,-278.0,300.0,891.0,0,0.0,0.0,
136,6.460107088088989,0.05813264846801758,17.202037518558317,21.052282593078676,103396.75,-280.0,287.0,889.0,34.875,1.875,-45.0625,0.625,-0.4375,0.125,288.0,-16.4375,-18.625,0.0416259765625,0.20965576171875,0.57391357421875,0.79052734375,-2.0,-12.0,-1.0,-278.0,300.0,891.0,0,0.0,0.0,
137,6.505316734313965,0.045209646224975586,22.11917330703554,21.05969710550115,103396.75,-278.0,288.0,885.0,34.875,1.5,-44.75,0.375,0.0,0.0,288.0,-16.4375,-18.625,0.0416259765625,0.20965576171875,0.57391357421875,0.79052734375,0.0,-11.0,-5.0,-278.0,300.0,891.0,0,0.0,0.0,
138,6.534299373626709,0.02898263931274414,34.503413895789805,21.119326206109584,103396.75,-281.0,286.0,897.0,34.1875,0.6875,-45.0625,0.25,0.0,0.0625,288.0,-16.4375,-18.625,0.0416259765625,0.20965576171875,0.57391357421875,0.79052734375,-3.0,-13.0,6.0,-278.0,300.0,891.0,0,0.0,0.0,
139,6.563377141952515,0.029077768325805664,34.39053467911874,21.17812171900416,103396.75,-282.0,288.0,889.0,34.1875,0.6875,-45.0625,0.1875,0.125,0.0625,288.0,-16.4375,-18.625,0.0416259765625,0.20965576171875,0.57391357421875,0.79052734375,-4.0,-12.0,-2.0,-278.0,300.0,891.0,0,0.0,0.0,
140,6.595464468002319,0.03208732604980469,31.164952743268145,21.226708244613466,103412.75,-280.0,288.0,893.0,33.375,1.875,-45.0625,0.0625,-0.0625,0.1875,288.0,-16.4375,-18.625,0.0416259765625,0.209716796875,0.57391357421875,0.79052734375,-2.0,-11.0,-4.0,-278.0,300.0,891.0,0,0.0,0.0,
141,6.646501302719116,0.051036834716796875,19.593691606248598,21.21416871494725,103412.75,-281.0,288.0,900.0,34.1875,1.5,-45.0625,0.25,-0.125,0.0,288.0,-16.4375,-18.625,0.0416259765625,0.209716796875,0.57391357421875,0.79052734375,-2.0,-15.0,-6.0,-278.0,300.0,891.0,0,0.0,0.0,
142,6.697471857070923,0.05097055435180664,19.6191705724416,21.202030113808107,103412.75,-282.0,288.0,898.0,34.5,1.5,-45.5625,0.0625,0.1875,0.125,288.0,-16.4375,-18.625,0.0416259765625,0.209716796875,0.57391357421875,0.79052734375,-2.0,-11.0,-6.0,-278.0,300.0,891.0,0,0.0,0.0,
