Index,Time,Difference,Hz,AveHz,0x6103 Pressure,0x6103 Acceleration-X,0x6103 Acceleration-Y,0x6103 Acceleration-Z,0x6103 Magnetic-X,0x6103 Magnetic-Y,0x6103 Magnetic-Z,0x6103 Angular-Vel-X,0x6103 Angular-Vel-Y,0x6103 Angular-Vel-Z,0x6103 Heading,0x6103 Roll,0x6103 Pitch,0x6103 Quaternion-X,0x6103 Quaternion-Y,0x6103 Quaternion-Z,0x6103 Quaternion-W,0x6103 Linear-Acceleration-X,0x6103 Linear-Acceleration-Y,0x6103 Linear-Acceleration-Z,0x6103 Gravity-X,0x6103 Gravity-Y,0x6103 Gravity-Z,0x6103 Range,0x6103 Smoothed Range,0x6103 Velocity,
0,0.0010001659393310547,0.0010001659393310547,999.8340882002384,0.0,109166.75,-941.0,-239.0,-88.0,42.375,20.5625,12.375,-2.4375,2.8125,-0.5625,343.6875,-76.5,114.1875,0.25848388671875,-0.6934814453125,-0.0950927734375,-0.66571044921875,12.0,-31.0,4.0,-953.0,-208.0,-93.0,876,871.2,239.96018116806633,
1,0.05100512504577637,0.05000495910644531,19.998016554144257,19.60587292164296,109166.75,-965.0,-206.0,-82.0,42.0,22.0625,10.875,-1.5,-0.25,0.0,343.5625,-76.5625,114.5625,0.25836181640625,-0.69384765625,-0.095947265625,-0.66534423828125,-11.0,0.0,12.0,-953.0,-206.0,-94.0,875,871.96,195.00784345068297,
2,0.09700965881347656,0.046004533767700195,21.736988033603343,20.61650380448674,109165.5,-944.0,-220.0,-85.0,42.0,21.0,12.0625,0.125,0.75,1.0625,343.5625,-76.5625,114.5,0.25860595703125,-0.69378662109375,-0.09588623046875,-0.665283203125,9.0,-13.0,8.0,-953.0,-207.0,-94.0,853,868.1680000000001,139.52094303586196,
3,0.14601469039916992,0.04900503158569336,20.4060678596102,20.54587789624937,109165.5,-967.0,-218.0,-104.0,42.0,22.875,10.875,-1.0,3.875,-0.1875,343.5625,-76.5,115.25,0.25860595703125,-0.69488525390625,-0.095703125,-0.6641845703125,-13.0,-11.0,-6.0,-953.0,-206.0,-97.0,875,869.5344000000001,117.19332465336385,
4,0.19601964950561523,0.05000495910644531,19.998016554144257,20.40611749938577,109165.5,-931.0,-210.0,-84.0,42.375,22.875,11.5625,-2.375,1.375,-1.125,343.5,-76.5,115.625,0.259033203125,-0.6951904296875,-0.09619140625,-0.66357421875,30.0,5.0,14.0,-953.0,-206.0,-98.0,811,857.8275200000002,46.9317837152152,
5,0.24602484703063965,0.050005197525024414,19.9979212060819,20.323150528683414,109165.5,-974.0,-204.0,-107.0,42.0,21.6875,10.375,0.75,6.0625,1.8125,343.5625,-76.3125,116.5,0.2596435546875,-0.69659423828125,-0.0953369140625,-0.6619873046875,-21.0,2.0,-4.0,-953.0,-206.0,-103.0,834,853.0620160000001,18.48539227231822,
6,0.2890288829803467,0.04300403594970703,23.253631384028562,20.75917098018189,109165.5,-940.0,-229.0,-116.0,42.375,21.6875,11.5625,0.6875,-0.375,-0.1875,343.5625,-76.25,117.125,0.2596435546875,-0.6976318359375,-0.0950927734375,-0.66094970703125,3.0,-14.0,-26.0,-952.0,-206.0,-106.0,872,856.8496128,32.403389781559625,
7,0.3320333957672119,0.043004512786865234,23.253373546076485,21.08221669638222,109165.5,-961.0,-225.0,-77.0,41.5625,21.375,13.25,3.5625,2.4375,2.0625,343.625,-76.375,117.1875,0.25836181640625,-0.6978759765625,-0.094970703125,-0.6612548828125,-8.0,-20.0,27.0,-953.0,-205.0,-105.0,867,858.8796902400001,35.363941633204306,
8,0.37603759765625,0.044004201889038086,22.72510253728998,21.274468430449602,109165.5,-962.0,-163.0,-84.0,42.0,22.0625,10.875,4.125,0.375,3.3125,343.6875,-76.4375,117.5625,0.2568359375,-0.69873046875,-0.09466552734375,-0.66094970703125,-9.0,40.0,21.0,-953.0,-203.0,-106.0,872,861.5037521920001,40.217568691243855,
9,0.42304229736328125,0.04700469970703125,21.274468430449602,21.274468430449602,109165.5,-968.0,-199.0,-109.0,42.0,20.1875,12.75,4.25,3.0,-4.5625,344.0625,-76.25,117.4375,0.25665283203125,-0.69915771484375,-0.09234619140625,-0.66094970703125,-22.0,18.0,-2.0,-952.0,-206.0,-107.0,876,864.4030017536002,44.5100536070462,
10,0.46904683113098145,0.046004533767700195,21.736988033603343,21.319832767844662,109167.0,-956.0,-203.0,-83.0,42.375,20.5625,11.25,2.5,-2.0625,-1.9375,344.1875,-76.25,117.1875,0.2564697265625,-0.69891357421875,-0.09161376953125,-0.66131591796875,-4.0,3.0,23.0,-952.0,-207.0,-106.0,839,859.3224014028801,13.520653080212501,
11,0.5200519561767578,0.05100512504577637,19.60587292164296,21.15173276314197,109167.0,-942.0,-193.0,-94.0,42.0,22.0625,11.5625,0.1875,-0.3125,1.9375,344.125,-76.3125,117.0625,0.255615234375,-0.6988525390625,-0.0919189453125,-0.66168212890625,10.0,12.0,10.0,-953.0,-205.0,-105.0,881,863.6579211223042,27.816852197830983,
12,0.5690567493438721,0.04900479316711426,20.406167139402843,21.08752776210126,109167.0,-966.0,-190.0,-109.0,40.875,22.5,11.6875,1.125,0.375,2.6875,344.0625,-76.4375,117.3125,0.2545166015625,-0.69921875,-0.0924072265625,-0.66168212890625,-12.0,12.0,-4.0,-953.0,-202.0,-105.0,853,861.5263368978434,13.553988967052629,
13,0.6180617809295654,0.04900503158569336,20.4060678596102,21.03349600495923,109167.0,-908.0,-221.0,-50.0,41.5625,21.6875,10.875,-0.3125,-0.25,2.0625,343.875,-76.625,117.25,0.253662109375,-0.698974609375,-0.09356689453125,-0.66204833984375,45.0,-19.0,53.0,-954.0,-201.0,-103.0,876,864.4210695182749,22.65721323123241,
14,0.6670665740966797,0.04900479316711426,20.406167139402843,20.987410467925717,109167.0,-981.0,-208.0,-97.0,42.375,21.6875,12.0625,2.9375,5.6875,4.1875,343.9375,-76.625,118.25,0.252197265625,-0.70068359375,-0.09307861328125,-0.660888671875,-27.0,-9.0,9.0,-954.0,-199.0,-106.0,870,865.53685561462,22.679554099753997,
15,0.7170717716217041,0.050005197525024414,19.9979212060819,20.9184081616775,109167.0,-977.0,-232.0,-73.0,42.0,21.0,11.25,2.6875,0.5,1.125,344.0,-76.6875,118.625,0.250732421875,-0.70147705078125,-0.09271240234375,-0.66064453125,-23.0,-35.0,34.0,-954.0,-197.0,-107.0,843,861.029484491696,0.1160327672428707,
16,0.7650766372680664,0.048004865646362305,20.83122172170432,20.912937633454288,109167.0,-974.0,-208.0,-80.0,42.0,22.0625,10.875,5.25,0.0625,5.625,344.125,-76.8125,118.5,0.24896240234375,-0.70172119140625,-0.09185791015625,-0.66119384765625,-24.0,-51.0,31.0,-954.0,-197.0,-106.0,862,861.2235875933569,0.9015071633078646,
17,0.8130815029144287,0.048004865646362305,20.83122172170432,20.90811307238548,109167.0,-975.0,-190.0,-73.0,42.0,22.0625,10.875,2.6875,-1.0625,2.3125,344.125,-76.9375,118.5625,0.24700927734375,-0.7020263671875,-0.09210205078125,-0.66156005859375,-19.0,2.0,31.0,-955.0,-193.0,-105.0,820,852.9788700746856,-33.62830200220621,
18,0.861086368560791,0.048004865646362305,20.83122172170432,20.903826442038532,109161.0,-986.0,-207.0,-77.0,41.1875,21.375,10.5,1.6875,-2.625,-2.4375,344.1875,-77.0625,117.9375,0.246337890625,-0.7012939453125,-0.091796875,-0.66265869140625,-30.0,-13.0,25.0,-955.0,-193.0,-102.0,825,847.3830960597485,-50.2160034437062,
19,0.9080908298492432,0.04700446128845215,21.27457633996277,20.9230171426291,109161.0,-925.0,-210.0,-60.0,42.375,21.0,11.25,1.75,-3.875,-0.625,344.375,-77.0625,116.75,0.246337890625,-0.69976806640625,-0.091064453125,-0.664306640625,30.0,-14.0,38.0,-955.0,-196.0,-98.0,801,838.1064768477988,-79.64403147524258,
20,0.9560954570770264,0.0480046272277832,20.831325181528314,20.91841337803651,109161.0,-945.0,-226.0,-67.0,41.5625,22.0625,10.375,3.3125,-0.4375,-2.375,344.5,-77.0625,116.1875,0.245849609375,-0.6993408203125,-0.09027099609375,-0.66510009765625,9.0,-29.0,29.0,-955.0,-196.0,-97.0,839,838.2851814782391,-62.97069432656481,
21,1.0061004161834717,0.05000495910644531,19.998016554144257,20.872668038108092,109161.0,-952.0,-245.0,-51.0,42.375,22.875,11.5625,6.375,-1.8125,-1.125,344.875,-76.9375,115.5,0.2451171875,-0.69891357421875,-0.08837890625,-0.66607666015625,3.0,-46.0,43.0,-955.0,-199.0,-95.0,806,831.8281451825914,-76.20213920746667,
22,1.056105613708496,0.050005197525024414,19.9979212060819,20.831249937918038,109161.0,-970.0,-321.0,-56.0,42.375,22.0625,10.375,10.0,-1.4375,-4.3125,345.5,-76.8125,114.3125,0.24371337890625,-0.69818115234375,-0.084716796875,-0.66778564453125,-15.0,-118.0,35.0,-954.0,-203.0,-91.0,778,821.0625161460731,-104.01975160721321,
23,1.1081109046936035,0.05200529098510742,19.22881270458359,20.75604517795047,109161.0,-928.0,-301.0,-10.0,41.5625,21.375,11.25,19.4375,0.6875,4.8125,346.4375,-76.8125,113.125,0.23931884765625,-0.6982421875,-0.07952880859375,-0.669921875,26.0,-96.0,77.0,-954.0,-205.0,-87.0,792,815.2500129168585,-105.56930847364153,
24,1.1561157703399658,0.048004865646362305,20.83122172170432,20.759166699146913,109161.0,-955.0,-361.0,-29.0,42.0,22.5,11.25,32.625,1.75,-0.0625,347.875,-76.6875,112.375,0.23175048828125,-0.70001220703125,-0.07098388671875,-0.6717529296875,-1.0,-153.0,55.0,-954.0,-207.0,-85.0,815,815.2000103334868,-84.66376975908791,
25,1.203120470046997,0.04700469970703125,21.274468430449602,20.7792990165178,109167.5,-941.0,-185.0,-48.0,41.5625,22.5,9.25,38.1875,-2.5,-0.25,349.625,-76.75,111.25,0.2213134765625,-0.7017822265625,-0.0611572265625,-0.67437744140625,13.0,22.0,33.0,-954.0,-208.0,-81.0,782,808.5600082667895,-95.98351867648479,
26,1.2571256160736084,0.05400514602661133,18.516753931324335,20.682101826232792,109167.5,-972.0,-323.0,-13.0,42.375,22.5,9.25,37.375,17.0,-23.375,352.625,-75.8125,109.0625,0.21533203125,-0.70257568359375,-0.04327392578125,-0.6768798828125,-21.0,-97.0,64.0,-950.0,-226.0,-78.0,764,799.6480066134316,-109.79108327134479,
27,1.3041303157806396,0.04700469970703125,21.274468430449602,20.703452464286947,109167.5,-1006.0,-236.0,-46.0,42.0,22.875,8.0625,38.1875,13.375,-6.6875,355.3125,-75.125,109.9375,0.20709228515625,-0.7076416015625,-0.0274658203125,-0.67498779296875,-58.0,0.0,38.0,-947.0,-236.0,-85.0,745,788.7184052907453,-134.3371582764537,
28,1.350135087966919,0.0460047721862793,21.736875382207526,20.738665522842894,109167.5,-919.0,-343.0,8.0,41.1875,24.0,8.875,40.5625,28.5,-34.6875,358.1875,-73.9375,109.875,0.20367431640625,-0.71221923828125,-0.00537109375,-0.6717529296875,16.0,-94.0,117.0,-940.0,-260.0,-95.0,731,777.1747242325963,-157.6544379437498,
29,1.3971397876739502,0.04700469970703125,21.274468430449602,20.756691818419327,109167.5,-936.0,-258.0,6.0,40.875,24.6875,6.875,41.875,50.3125,-32.75,2.8125,-71.75,111.875,0.20050048828125,-0.71978759765625,0.01654052734375,-0.6644287109375,-5.0,26.0,120.0,-931.0,-284.0,-114.0,679,757.539779386077,-209.66815320917848,
30,1.4461445808410645,0.04900479316711426,20.406167139402843,20.744813760289635,109167.5,-1013.0,-232.0,-153.0,39.6875,25.75,8.5,48.25,57.9375,-33.625,7.6875,-68.9375,115.625,0.200439453125,-0.7332763671875,0.04364013671875,-0.64825439453125,-98.0,85.0,0.0,-915.0,-317.0,-152.0,675,741.0318235088616,-235.10734391941182,
31,1.4991497993469238,0.053005218505859375,18.86606693055056,20.678387185526464,109167.5,-1259.0,567.0,362.0,38.1875,26.875,9.6875,30.0625,-22.1875,-39.75,10.9375,-67.1875,114.5,0.20233154296875,-0.7344970703125,0.06207275390625,-0.644775390625,-354.0,912.0,520.0,-904.0,-345.0,-157.0,646,722.0254588070894,-259.80094484954714,
32,1.5481548309326172,0.04900503158569336,20.4060678596102,20.669767235569726,109167.5,-1213.0,-526.0,432.0,37.875,28.375,9.25,42.8125,-31.8125,-110.5625,17.875,-62.4375,106.1875,0.227294921875,-0.716064453125,0.102783203125,-0.65191650390625,-343.0,-91.0,558.0,-869.0,-434.0,-126.0,639,705.4203670456716,-275.6096817393471,
33,1.5981600284576416,0.050005197525024414,19.9979212060819,20.6487456902847,109167.75,-1127.0,-492.0,398.0,34.875,31.375,7.6875,51.9375,-20.25,-86.3125,24.375,-58.3125,99.875,0.24139404296875,-0.69781494140625,0.1424560546875,-0.6591796875,-292.0,14.0,486.0,-834.0,-507.0,-88.0,606,685.5362936365374,-300.0157720498405,
34,1.6471648216247559,0.04900479316711426,20.406167139402843,20.64152873691326,109167.75,-1148.0,-614.0,279.0,31.875,35.1875,6.0625,40.5625,-8.8125,-37.625,28.9375,-55.625,96.1875,0.2454833984375,-0.685791015625,0.17144775390625,-0.663330078125,-339.0,-64.0,339.0,-809.0,-550.0,-59.0,592,666.8290349092299,-316.3613073017702,
35,1.694169282913208,0.04700446128845215,21.27457633996277,20.659092543465174,109167.75,-1030.0,-518.0,193.0,30.875,37.0,4.875,28.5,-24.8125,-1.1875,30.4375,-55.125,93.3125,0.240478515625,-0.67730712890625,0.182861328125,-0.67083740234375,-225.0,40.0,226.0,-804.0,-559.0,-32.0,517,636.863227927384,-380.5910154861904,
36,1.7391738891601562,0.04500460624694824,22.219947765187033,20.699482797194207,109167.75,-829.0,-579.0,171.0,30.5,37.25,3.375,25.1875,-40.0,-21.8125,30.9375,-54.6875,90.4375,0.24005126953125,-0.6668701171875,0.188232421875,-0.67987060546875,-28.0,-13.0,176.0,-800.0,-566.0,-4.0,470,603.4905823419072,-452.78050072803114,
37,1.7901790142059326,0.05100512504577637,19.60587292164296,20.668324065016506,109167.75,-569.0,-535.0,147.0,29.375,37.25,2.5625,17.8125,-41.5,-12.5,31.625,-53.625,85.625,0.24127197265625,-0.6474609375,0.19732666015625,-0.6954345703125,219.0,44.0,103.0,-791.0,-578.0,36.0,418,566.3924658735258,-507.6925920047039,
38,1.841184139251709,0.05100512504577637,19.60587292164296,20.63889167296645,109167.75,-470.0,-843.0,209.0,29.375,38.375,0.1875,-8.875,-18.0,4.625,30.875,-53.3125,83.625,0.244873046875,-0.6380615234375,0.19464111328125,-0.70355224609375,316.0,-262.0,144.0,-786.0,-581.0,64.0,343,521.7139726988206,-581.3462455065155,
39,1.8911890983581543,0.05000495910644531,19.998016554144257,20.621946284408075,109167.75,-534.0,-668.0,121.0,29.6875,38.75,-1.375,11.125,18.75,9.75,30.8125,-53.6875,83.6875,0.24151611328125,-0.6397705078125,0.1942138671875,-0.70330810546875,256.0,-91.0,57.0,-790.0,-576.0,63.0,254,468.1711781590565,-679.2269347174818,
40,1.9371938705444336,0.0460047721862793,21.736875382207526,20.648423788765296,109167.75,-561.0,-398.0,-41.0,29.6875,38.375,0.1875,26.0,22.6875,-19.8125,32.0,-53.625,84.4375,0.23663330078125,-0.64447021484375,0.20074462890625,-0.6988525390625,228.0,179.0,-97.0,-790.0,-578.0,56.0,198,414.13694252724525,-778.2886370342892,
41,1.985198736190796,0.048004865646362305,20.83122172170432,20.65284409694462,109189.5,-607.0,-481.0,-120.0,30.0,39.0625,-0.1875,30.875,18.6875,-64.4375,36.125,-51.1875,84.4375,0.2410888671875,-0.64154052734375,0.22589111328125,-0.6922607421875,156.0,130.0,-180.0,-764.0,-611.0,59.0,146,360.5095540217962,-846.0557136900288,
42,2.036203622817993,0.051004886627197266,19.605964567849295,20.62662080026865,109189.5,-581.0,-529.0,-213.0,29.25,40.1875,-1.0,24.3125,18.4375,-82.875,41.125,-47.625,84.625,0.25244140625,-0.63616943359375,0.2562255859375,-0.68255615234375,142.0,127.0,-275.0,-724.0,-657.0,61.0,43,297.00764321743696,-925.8478135962218,
43,2.0852086544036865,0.04900503158569336,20.4060678596102,20.62143752817717,109189.5,-648.0,-486.0,-180.0,26.25,42.0625,-1.375,9.375,11.75,-60.5625,45.625,-44.125,84.75,0.26617431640625,-0.629638671875,0.283203125,-0.6727294921875,33.0,214.0,-244.0,-682.0,-700.0,64.0,34,244.4061145739496,-955.356323480624,
44,3.6013600826263428,0.04700446128845215,21.27457633996277,12.217606401610466,109215.25,-535.0,-666.0,71.0,26.0625,42.6875,-0.5625,-29.4375,2.9375,4.125,25.5,-47.375,80.9375,0.3291015625,-0.58184814453125,0.1641845703125,-0.72540283203125,173.0,43.0,-120.0,-721.0,-655.0,104.0,104,216.3248916591597,-883.7682829085411,
45,3.650364875793457,0.04900479316711426,20.406167139402843,12.327534789304762,109215.25,-535.0,-326.0,224.0,26.375,43.75,-2.1875,-30.5,41.5625,43.25,23.8125,-48.8125,83.375,0.3302001953125,-0.5943603515625,0.15142822265625,-0.71746826171875,202.0,314.0,150.0,-738.0,-641.0,73.0,118,196.65991332732776,-787.2719932532526,
46,3.6963696479797363,0.0460047721862793,21.736875382207526,12.44464282005493,109215.25,-803.0,-809.0,247.0,26.375,41.5625,0.5625,-35.5625,53.25,37.875,22.5,-50.5625,87.9375,0.329345703125,-0.6165771484375,0.1396484375,-0.7012939453125,-45.0,-187.0,225.0,-757.0,-621.0,22.0,165,190.3279306618622,-657.3450982269068,
47,3.7443742752075195,0.0480046272277832,20.831325181528314,12.55216400539852,109215.25,-901.0,-364.0,190.0,28.1875,41.1875,1.75,-27.875,73.4375,78.75,19.4375,-54.0625,93.625,0.31707763671875,-0.64666748046875,0.1173095703125,-0.68377685546875,-107.0,209.0,227.0,-794.0,-573.0,-36.0,212,194.6623445294898,-507.8177616319503,
48,3.793379306793213,0.04900503158569336,20.4060678596102,12.653625202742376,109215.25,-1019.0,-740.0,151.0,30.0625,39.375,4.5625,-20.9375,61.3125,45.1875,18.0625,-55.9375,99.8125,0.308349609375,-0.6728515625,0.1055908203125,-0.66412353515625,-207.0,-199.0,245.0,-812.0,-540.0,-93.0,348,225.32987562359187,-281.09346518696964,
49,3.8443846702575684,0.05100536346435547,19.605781276293403,12.74586291509613,109215.25,-973.0,-499.0,115.0,32.0,38.1875,6.875,-26.5625,43.6875,59.3125,15.375,-58.3125,105.6875,0.2952880859375,-0.69561767578125,0.087890625,-0.6490478515625,-139.0,-3.0,254.0,-834.0,-495.0,-139.0,409,262.0639004988735,-80.83492072903712,
50,3.8933894634246826,0.04900479316711426,20.406167139402843,12.84228060657956,109214.75,-1030.0,-667.0,29.0,32.25,37.0625,8.875,-5.75,18.0,27.3125,13.875,-59.4375,109.8125,0.287841796875,-0.70953369140625,0.0777587890625,-0.63848876953125,-186.0,-198.0,199.0,-844.0,-468.0,-169.0,503,310.25112039909885,131.9953560702017,
51,3.944394588470459,0.05100512504577637,19.60587292164296,12.92974089080083,109214.75,-959.0,-486.0,38.0,32.5625,34.875,10.0625,-20.9375,25.375,62.625,11.4375,-61.3125,113.4375,0.27532958984375,-0.72100830078125,0.06341552734375,-0.63275146484375,-98.0,-54.0,226.0,-860.0,-431.0,-187.0,606,369.40089631927907,337.5328828631034,
52,3.9953994750976562,0.051004886627197266,19.605964567849295,13.014968922157404,109214.75,-860.0,-569.0,60.0,34.0625,33.25,10.5,11.3125,4.5625,27.1875,9.5625,-62.9375,116.1875,0.26263427734375,-0.72894287109375,0.05291748046875,-0.62994384765625,54.0,-152.0,274.0,-873.0,-400.0,-196.0,675,430.5207170554233,509.6889142397116,
53,4.045404434204102,0.05000495910644531,19.998016554144257,13.101285881797699,109214.75,-879.0,-260.0,-34.0,35.1875,31.0625,12.0625,0.6875,15.375,35.3125,9.1875,-64.0,118.0625,0.2481689453125,-0.73590087890625,0.0506591796875,-0.6279296875,-49.0,139.0,105.0,-881.0,-378.0,-202.0,745,493.41657364433865,659.3096076422119,
54,4.095409393310547,0.05000495910644531,19.998016554144257,13.18549498084459,109214.75,-899.0,-618.0,-16.0,35.1875,31.0625,13.0,-9.5625,-18.625,18.0625,7.25,-65.125,118.5625,0.24578857421875,-0.73504638671875,0.0401611328125,-0.630615234375,113.0,-249.0,314.0,-889.0,-361.0,-197.0,703,535.333258915471,695.0977993031613,
55,4.146414756774902,0.05100536346435547,19.605781276293403,13.264471411147305,109214.75,-923.0,-361.0,-79.0,37.0625,30.6875,12.1875,15.25,-6.375,-25.75,7.9375,-65.125,117.875,0.24261474609375,-0.73443603515625,0.0439453125,-0.63232421875,-65.0,-41.0,110.0,-889.0,-364.0,-192.0,736,575.4666071323768,713.447368847724,
56,4.196419715881348,0.05000495910644531,19.998016554144257,13.344709011843605,109214.75,-815.0,-548.0,46.0,37.0625,30.0,11.375,-0.5625,-23.25,-27.3125,9.375,-64.3125,114.1875,0.2493896484375,-0.7257080078125,0.05255126953125,-0.6390380859375,92.0,-134.0,252.0,-883.0,-387.0,-174.0,712,602.7732857059015,679.9737771085877,
57,4.245424509048462,0.04900479316711426,20.406167139402843,13.42621918691838,109203.25,-967.0,-391.0,-21.0,36.6875,30.5625,12.5,35.9375,16.875,-55.25,13.5625,-62.125,112.75,0.25250244140625,-0.7257080078125,0.07574462890625,-0.635498046875,-171.0,-42.0,125.0,-867.0,-422.0,-177.0,964,675.0186285647212,838.8291299709781,
58,4.290428876876831,0.04500436782836914,22.220065479280787,13.518462061587755,109203.25,-909.0,-325.0,-85.0,36.25,29.5,10.5,-38.6875,-4.25,-18.8125,14.3125,-60.4375,111.875,0.27056884765625,-0.72027587890625,0.0797119140625,-0.63372802734375,-54.0,121.0,92.0,-854.0,-447.0,-178.0,950,730.014902851777,915.4674671317559,
59,4.3404340744018555,0.050005197525024414,19.9979212060819,13.593110502002187,109203.25,-1089.0,-425.0,-246.0,33.6875,31.75,11.75,-47.1875,40.0625,-1.1875,12.1875,-60.0625,116.3125,0.2823486328125,-0.728759765625,0.06646728515625,-0.62030029296875,-229.0,9.0,-15.0,-849.0,-438.0,-208.0,875,759.0119222814217,848.3499956584567,
60,4.391439199447632,0.05100512504577637,19.60587292164296,13.662946764137592,109203.25,-1032.0,-333.0,-317.0,33.6875,33.0,13.375,-5.25,9.9375,-28.8125,12.3125,-58.9375,118.0,0.2930908203125,-0.73162841796875,0.0660400390625,-0.61187744140625,-191.0,112.0,-79.0,-840.0,-446.0,-237.0,959,799.0095378251374,835.5176300305297,
61,4.439444065093994,0.048004865646362305,20.83122172170432,13.740459189389174,109203.25,-836.0,-316.0,-301.0,33.0,31.75,16.0625,-32.25,14.1875,0.125,11.1875,-58.3125,119.6875,0.30426025390625,-0.733154296875,0.0594482421875,-0.60528564453125,-1.0,130.0,-46.0,-834.0,-446.0,-255.0,1016,842.40763026011,849.2211611868104,
62,4.488448858261108,0.04900479316711426,20.406167139402843,13.813235252950998,109203.25,-942.0,-208.0,-245.0,33.0,33.0,15.25,-46.9375,2.1875,3.6875,8.3125,-58.5,122.5625,0.31390380859375,-0.7362060546875,0.043701171875,-0.59796142578125,-105.0,480.0,128.0,-836.0,-431.0,-275.0,941,862.126104208088,759.8526239727286,
63,4.538453817367554,0.05000495910644531,19.998016554144257,13.88137954801135,109203.25,-890.0,-308.0,-148.0,33.0,31.75,17.6875,-25.1875,-1.5,28.5,5.6875,-59.3125,124.0625,0.317138671875,-0.73638916015625,0.02978515625,-0.59686279296875,-46.0,105.0,131.0,-843.0,-414.0,-280.0,917,873.1008833664704,651.7768622356646,
64,4.588458776473999,0.05000495910644531,19.998016554144257,13.948038571936522,109203.25,-1020.0,-265.0,-30.0,33.25,30.375,18.5,-26.1875,-0.125,22.6875,2.4375,-60.8125,127.0,0.31243896484375,-0.74139404296875,0.010986328125,-0.59381103515625,-163.0,114.0,258.0,-856.0,-379.0,-288.0,997,897.8807066931763,620.5309532077787,
65,4.640463829040527,0.05200505256652832,19.228900859598856,14.007220483698834,109180.25,-844.0,-274.0,-99.0,34.0625,30.0,18.875,-29.5625,8.125,-2.125,0.75,-60.6875,128.625,0.31976318359375,-0.74285888671875,0.001953125,-0.588134765625,10.0,96.0,202.0,-855.0,-371.0,-302.0,834,885.1045653545411,447.2905315324553,
66,4.68846869468689,0.048004865646362305,20.83122172170432,14.077090900658703,109180.25,-1004.0,-280.0,-107.0,34.75,29.25,20.875,-28.3125,-25.375,31.75,357.375,-61.9375,130.5625,0.31927490234375,-0.74224853515625,-0.0133056640625,-0.58905029296875,-193.0,81.0,234.0,-865.0,-349.0,-299.0,843,876.683652283633,322.74884377010727,
67,4.739474058151245,0.05100536346435547,19.605781276293403,14.136589667532665,109180.25,-954.0,-330.0,-151.0,34.75,28.875,21.875,-33.3125,-15.8125,9.0,353.6875,-63.1875,131.9375,0.3240966796875,-0.738525390625,-0.0323486328125,-0.59027099609375,-94.0,0.0,152.0,-875.0,-328.0,-295.0,898,880.9469218269065,274.91602105354656,
68,4.788478851318359,0.04900479316711426,20.406167139402843,14.200751869516623,109180.25,-978.0,-340.0,-109.0,36.0,27.0,20.75,-27.625,-38.0,6.0625,351.125,-64.0625,131.9375,0.330322265625,-0.7327880859375,-0.0458984375,-0.5931396484375,-66.0,-7.0,197.0,-882.0,-318.0,-286.0,736,851.9575374615254,101.6203723171653,
69,4.835483551025391,0.04700469970703125,21.274468430449602,14.269513952822397,109180.25,-837.0,-416.0,-129.0,38.0625,27.0,22.25,-30.3125,-21.75,-14.125,348.375,-65.1875,130.1875,0.33941650390625,-0.72125244140625,-0.06085205078125,-0.6007080078125,59.0,-102.0,136.0,-890.0,-313.0,-265.0,853,852.1660299692204,82.18341130832094,
70,4.884488582611084,0.04900503158569336,20.4060678596102,14.331080688611282,109180.25,-838.0,-400.0,-128.0,38.5,26.6875,21.875,-22.375,-14.8125,-21.0,347.4375,-64.6875,129.8125,0.3525390625,-0.7159423828125,-0.06573486328125,-0.5989990234375,48.0,-78.0,140.0,-886.0,-321.0,-268.0,820,845.7328239753764,39.49144143361035,
71,4.929492950439453,0.04500436782836914,22.220065479280787,14.403104074562174,109180.25,-813.0,-433.0,-217.0,39.25,26.6875,22.75,-2.25,-29.0625,-21.75,346.5625,-65.125,126.3125,0.36077880859375,-0.70306396484375,-0.07147216796875,-0.608642578125,76.0,-101.0,26.0,-889.0,-332.0,-244.0,1016,879.7862591803012,182.92706515646307,
72,4.976497650146484,0.04700469970703125,21.274468430449602,14.468006429759022,109180.25,-869.0,-392.0,-243.0,40.75,29.0,22.75,0.1875,-15.6875,-18.5625,347.25,-64.8125,123.5625,0.3658447265625,-0.69549560546875,-0.068603515625,-0.61456298828125,18.0,-45.0,-12.0,-887.0,-347.0,-230.0,857,875.2290073442409,126.9510300619961,
73,5.023502349853516,0.04700469970703125,21.274468430449602,14.531694207753016,109177.25,-934.0,-397.0,-360.0,40.375,30.1875,22.75,-5.875,-17.0625,-1.5,347.125,-64.875,121.5625,0.368896484375,-0.689208984375,-0.06988525390625,-0.61968994140625,-8.0,-52.0,-122.0,-888.0,-353.0,-217.0,806,861.3832058753928,42.648410800940574,
74,5.07250714302063,0.04900479316711426,20.406167139402843,14.588446681995938,109177.25,-903.0,-390.0,-367.0,42.1875,32.75,21.875,-7.8125,24.625,-11.6875,347.1875,-64.5,122.125,0.37237548828125,-0.68975830078125,-0.06915283203125,-0.61712646484375,-18.0,-33.0,-142.0,-885.0,-357.0,-224.0,839,856.9065647003142,15.848511032395077,
75,5.122512102127075,0.05000495910644531,19.998016554144257,14.641253842788766,109177.25,-855.0,-415.0,-368.0,42.1875,33.5,23.875,-7.125,22.4375,0.25,347.5625,-63.5625,124.3125,0.3773193359375,-0.69500732421875,-0.066162109375,-0.60845947265625,22.0,-55.0,-122.0,-878.0,-360.0,-245.0,811,847.7252517602515,-24.0428008069147,
76,5.1725170612335205,0.05000495910644531,19.998016554144257,14.693039984265578,109177.25,-853.0,-418.0,-328.0,41.75,34.6875,21.75,0.4375,5.6875,3.625,347.5,-63.5,125.3125,0.3768310546875,-0.69781494140625,-0.06622314453125,-0.60552978515625,24.0,-61.0,-75.0,-877.0,-356.0,-252.0,875,853.1802014082012,2.5833940268128366,
77,5.223522424697876,0.05100536346435547,19.605781276293403,14.741010708775432,109177.25,-792.0,-420.0,-323.0,41.75,35.6875,22.1875,7.6875,3.75,25.5,347.375,-63.6875,126.5625,0.372314453125,-0.70245361328125,-0.06658935546875,-0.6029052734375,86.0,-71.0,-64.0,-879.0,-348.0,-259.0,782,838.944161126561,-53.755023179018025,
78,5.274527549743652,0.05100512504577637,19.60587292164296,14.788054335556724,109177.25,-922.0,-371.0,-305.0,41.75,34.5625,20.6875,7.3125,1.5,21.25,346.5625,-64.8125,127.6875,0.3614501953125,-0.7066650390625,-0.07110595703125,-0.6041259765625,-34.0,-41.0,-50.0,-887.0,-329.0,-254.0,773,825.7553289012488,-94.71973226208223,
79,5.324532508850098,0.05000495910644531,19.998016554144257,14.836983316129867,109177.25,-862.0,-321.0,-331.0,41.75,34.5625,20.25,-5.1875,8.75,-1.8125,346.3125,-64.875,128.6875,0.3597412109375,-0.7093505859375,-0.0721435546875,-0.601806640625,26.0,2.0,-71.0,-888.0,-324.0,-260.0,787,818.0042631209991,-106.77697416680489,
80,5.372537136077881,0.0480046272277832,20.831325181528314,14.890543885268048,109178.0,-809.0,-305.0,-328.0,42.1875,34.5625,19.5,-1.0625,-12.125,12.5625,345.75,-65.25,128.75,0.3585205078125,-0.708740234375,-0.07501220703125,-0.6029052734375,80.0,14.0,-72.0,-890.0,-319.0,-256.0,731,800.6034104967994,-157.9181432235549,
81,5.423542261123657,0.05100512504577637,19.60587292164296,14.93488869453712,109178.0,-961.0,-278.0,-350.0,42.5,34.875,20.25,-6.8125,7.6875,4.1875,345.0,-65.75,129.375,0.356201171875,-0.70953369140625,-0.0792236328125,-0.60284423828125,-67.0,32.0,-95.0,-894.0,-310.0,-255.0,745,789.4827283974396,-169.94065058725144,
82,5.4695470333099365,0.0460047721862793,21.736875382207526,14.992100717045503,109178.0,-921.0,-266.0,-393.0,40.6875,33.375,18.25,-17.4375,-1.9375,-3.8125,344.5,-65.625,129.9375,0.359619140625,-0.70928955078125,-0.08172607421875,-0.60076904296875,-28.0,43.0,-133.0,-893.0,-310.0,-259.0,707,772.9861827179517,-207.66919200418562,
83,5.520551919937134,0.051004886627197266,19.605964567849295,15.03472862926089,109178.0,-871.0,-239.0,-368.0,40.6875,33.375,18.25,-15.8125,-6.1875,-1.875,343.5625,-65.625,130.125,0.364501953125,-0.70703125,-0.08660888671875,-0.59979248046875,29.0,66.0,-90.0,-893.0,-308.0,-260.0,698,757.9889461743614,-224.9424112612055,
84,5.565556526184082,0.04500460624694824,22.219947765187033,15.09283026860083,109178.0,-923.0,-284.0,-322.0,40.25,33.0625,18.6875,-24.75,-2.25,0.25,341.9375,-66.0,130.625,0.3690185546875,-0.704345703125,-0.09515380859375,-0.59893798828125,-49.0,16.0,-45.0,-896.0,-301.0,-259.0,693,744.9911569394892,-237.71596858131875,
85,5.612561225891113,0.04700469970703125,21.274468430449602,15.144600936893022,109178.0,-911.0,-354.0,-288.0,40.25,33.0625,18.6875,-28.3125,-12.4375,-3.1875,340.625,-66.0625,131.0625,0.37542724609375,-0.70166015625,-0.1016845703125,-0.59698486328125,-14.0,-54.0,-26.0,-896.0,-299.0,-261.0,670,729.9929255515914,-253.9886548999371,
86,5.661566257476807,0.04900503158569336,20.4060678596102,15.190142813647414,109178.0,-894.0,-350.0,-168.0,39.875,33.0,19.5,-15.625,-24.8125,15.375,338.5625,-67.125,130.75,0.376708984375,-0.6956787109375,-0.11572265625,-0.6005859375,19.0,-80.0,137.0,-904.0,-285.0,-246.0,684,720.7943404412731,-240.73231431466064,
87,5.712571144104004,0.051004886627197266,19.605964567849295,15.229569629044093,109178.0,-883.0,-427.0,-71.0,40.25,31.75,17.875,-24.9375,-3.875,1.5625,336.8125,-67.5625,131.5625,0.38031005859375,-0.6942138671875,-0.12274169921875,-0.5986328125,23.0,-148.0,176.0,-906.0,-279.0,-248.0,642,705.0354723530185,-254.37941332527484,
88,5.762576103210449,0.05000495910644531,19.998016554144257,15.270947996847,109164.75,-910.0,-457.0,-12.0,40.25,31.0625,18.6875,-7.3125,-20.6875,2.0,335.5,-68.125,131.125,0.38232421875,-0.69000244140625,-0.130126953125,-0.60064697265625,0.0,-182.0,227.0,-910.0,-274.0,-239.0,620,688.0283778824148,-271.5251620124253,
89,5.811581134796143,0.04900503158569336,20.4060678596102,15.31424889986018,109164.75,-873.0,-463.0,-79.0,40.25,31.0625,18.6875,-3.5,-9.8125,1.25,335.0,-68.5625,130.0625,0.3831787109375,-0.68609619140625,-0.133544921875,-0.60382080078125,39.0,-189.0,150.0,-912.0,-274.0,-230.0,592,668.8227023059319,-295.60259343061404,
90,5.862586259841919,0.05100512504577637,19.60587292164296,15.351586486068488,109164.75,-975.0,-426.0,-123.0,40.25,31.0625,18.25,25.0625,-10.0,-9.75,335.6875,-68.6875,128.625,0.380615234375,-0.68463134765625,-0.1307373046875,-0.60772705078125,-61.0,-148.0,99.0,-913.0,-278.0,-222.0,540,643.0581618447455,-337.50933597780084,
91,5.911591291427612,0.04900503158569336,20.4060678596102,15.39348637514216,109164.75,-789.0,-378.0,-14.0,39.5,31.375,17.875,38.0,-12.625,-18.0625,338.1875,-68.4375,124.4375,0.3758544921875,-0.68023681640625,-0.1190185546875,-0.61798095703125,122.0,-81.0,189.0,-912.0,-296.0,-203.0,931,700.6465294757965,-34.97704122155977,
92,5.95559549331665,0.044004201889038086,22.72510253728998,15.447657602542364,109164.75,-784.0,-367.0,-37.0,39.25,31.375,17.0,33.0625,0.0,-26.375,341.125,-67.75,120.375,0.371826171875,-0.67626953125,-0.1041259765625,-0.62738037109375,162.0,-48.0,142.0,-908.0,-319.0,-187.0,773,715.1172235806372,37.78796848640484,
93,6.004600286483765,0.04900479316711426,20.406167139402843,15.488125031293281,109164.75,-841.0,-434.0,-126.0,39.25,31.375,13.75,27.6875,-8.75,-1.75,344.5625,-67.3125,117.8125,0.359619140625,-0.67864990234375,-0.085693359375,-0.6346435546875,-27.0,-120.0,38.0,-905.0,-333.0,-176.0,625,697.0937788645098,-43.32751027189275,
94,6.052605152130127,0.048004865646362305,20.83122172170432,15.530502591420168,109164.75,-988.0,-479.0,-133.0,37.5,33.5625,14.1875,21.25,-9.875,-13.3125,347.25,-67.125,115.6875,0.3485107421875,-0.6802978515625,-0.07135009765625,-0.64080810546875,-47.0,-134.0,46.0,-903.0,-340.0,-168.0,540,665.6750230916078,-165.56022176259376,
95,6.101609945297241,0.04900479316711426,20.406167139402843,15.569661261815066,109164.75,-846.0,-425.0,-60.0,37.5,32.875,14.1875,15.9375,-15.5625,-7.875,349.25,-66.9375,113.1875,0.3411865234375,-0.67877197265625,-0.06072998046875,-0.6474609375,56.0,-74.0,94.0,-902.0,-350.0,-154.0,456,623.7400184732863,-303.59472005669477,
96,6.1496148109436035,0.048004865646362305,20.83122172170432,15.610733834769995,109166.0,-821.0,-394.0,-115.0,36.6875,32.5625,12.1875,23.3125,-13.25,-10.6875,351.1875,-66.8125,110.8125,0.33319091796875,-0.677490234375,-0.050048828125,-0.65380859375,125.0,-2.0,78.0,-901.0,-360.0,-137.0,362,571.3920147786291,-460.9703503757562,
97,6.198619842529297,0.04900503158569336,20.4060678596102,15.648644773224216,109166.0,-671.0,-281.0,26.0,36.6875,33.0,11.0625,6.6875,-5.375,-6.0,352.9375,-66.5,109.5625,0.32708740234375,-0.67803955078125,-0.0404052734375,-0.656982421875,228.0,86.0,156.0,-899.0,-367.0,-130.0,292,515.5136118229033,-596.827976820842,
98,6.249624967575073,0.05100512504577637,19.60587292164296,15.680940937808806,109166.0,-897.0,-201.0,-8.0,34.5,33.6875,9.5,-12.5,15.0625,5.375,352.4375,-66.5,111.25,0.329345703125,-0.68109130859375,-0.04278564453125,-0.65252685546875,1.0,162.0,133.0,-899.0,-364.0,-141.0,268,466.01088945832265,-671.5711982477417,
99,6.2976298332214355,0.048004865646362305,20.83122172170432,15.720199919936924,109166.0,-861.0,-262.0,-210.0,36.25,33.6875,10.0625,-40.625,-5.4375,4.75,350.625,-66.5,113.75,0.33837890625,-0.68255615234375,-0.05291748046875,-0.6456298828125,92.0,78.0,-145.0,-899.0,-357.0,-157.0,254,423.60871156665814,-713.9147924270759,
100,6.347634792327881,0.05000495910644531,19.998016554144257,15.753899408464045,109166.0,-780.0,-154.0,-251.0,34.75,32.1875,12.0625,-33.0625,23.5,27.0,348.5,-66.9375,116.4375,0.34344482421875,-0.6881103515625,-0.06646728515625,-0.63568115234375,45.0,207.0,-34.0,-902.0,-338.0,-179.0,193,377.48696925332655,-755.6005071992569,
101,6.398639917373657,0.05100512504577637,19.60587292164296,15.78460443222687,109166.0,-843.0,-258.0,-284.0,34.5,31.5,13.25,-60.5,45.9375,-20.5625,346.6875,-65.75,124.4375,0.36077880859375,-0.6998291015625,-0.07373046875,-0.612060546875,48.0,35.0,-38.0,-892.0,-331.0,-235.0,217,345.3895754026613,-730.3398907498189,
102,6.4476447105407715,0.04900479316711426,20.406167139402843,15.819730239361334,109166.0,-839.0,-306.0,-235.0,33.6875,30.375,15.6875,-50.6875,30.0625,6.0,344.125,-64.8125,129.0625,0.37469482421875,-0.70501708984375,-0.08599853515625,-0.59600830078125,-27.0,10.0,28.0,-887.0,-319.0,-269.0,165,309.31166032212906,-731.5143056347598,
103,6.490649223327637,0.043004512786865234,23.253373546076485,15.868982663523726,109166.0,-1021.0,-241.0,-215.0,34.0625,30.0,18.5,-56.875,26.0,22.0,341.5,-64.75,133.625,0.37847900390625,-0.70989990234375,-0.0953369140625,-0.58624267578125,-134.0,55.0,79.0,-886.0,-297.0,-295.0,198,287.0493282577033,-688.7463092079856,
104,6.536653518676758,0.046004295349121094,21.737100686166794,15.91028187479228,109170.25,-1074.0,-292.0,-475.0,33.6875,28.5625,20.0625,-48.5,-0.1875,22.5625,337.4375,-64.8125,138.6875,0.38751220703125,-0.7138671875,-0.114013671875,-0.57208251953125,-183.0,0.0,-167.0,-889.0,-269.0,-313.0,142,258.0394626061626,-677.1151214783308,
105,6.582658290863037,0.0460047721862793,21.736875382207526,15.951002674063108,109170.25,-1028.0,-260.0,-512.0,33.6875,27.5,20.1875,-5.625,-73.625,38.0625,334.5,-67.4375,139.1875,0.37591552734375,-0.7098388671875,-0.1312255859375,-0.5810546875,-122.0,-14.0,-227.0,-905.0,-245.0,-284.0,132,232.8315700849301,-651.2802608590872,
106,6.625662565231323,0.04300427436828613,23.25350246433779,15.998400002475707,109170.25,-952.0,-162.0,-311.0,35.5625,25.5,20.5625,9.5625,-46.6875,22.1875,333.5625,-70.0,136.8125,0.36053466796875,-0.70318603515625,-0.1400146484375,-0.59661865234375,-30.0,66.0,-66.0,-921.0,-228.0,-244.0,137,213.66525606794409,-610.160994732521,
107,6.6716673374176025,0.0460047721862793,21.736875382207526,16.03796990894579,109170.25,-794.0,-80.0,-131.0,36.6875,24.0625,17.375,-5.9375,-10.4375,-12.3125,334.0625,-70.9375,134.3125,0.3533935546875,-0.6993408203125,-0.13922119140625,-0.60552978515625,132.0,147.0,91.0,-927.0,-228.0,-223.0,100,190.9322048543553,-586.957896043441,
108,6.717671632766724,0.046004295349121094,21.737100686166794,16.076998981791462,109170.25,-982.0,-105.0,-216.0,36.6875,25.5,17.375,-12.75,8.125,3.0625,334.125,-70.625,135.25,0.35418701171875,-0.7015380859375,-0.13836669921875,-0.60272216796875,-56.0,122.0,13.0,-925.0,-228.0,-230.0,100,172.74576388348424,-548.6304165361234,
109,6.765676498413086,0.048004865646362305,20.83122172170432,16.11073187220322,109170.25,-649.0,-256.0,-395.0,36.0,25.5,18.1875,-15.875,-27.625,4.6875,334.0,-70.5625,135.125,0.3558349609375,-0.70074462890625,-0.138916015625,-0.60247802734375,275.0,-26.0,-164.0,-925.0,-229.0,-230.0,128,163.7966111067874,-476.18869037145436,
110,6.8146812915802,0.04900479316711426,20.406167139402843,16.14162061194398,109170.25,-968.0,-163.0,-66.0,35.5625,22.875,16.1875,24.5625,-18.625,21.0625,333.625,-72.875,133.0,0.34417724609375,-0.695556640625,-0.1470947265625,-0.6156005859375,-85.0,34.0,109.0,-935.0,-213.0,-200.0,76,146.2372888854299,-452.61464511789376,
111,6.863686561584473,0.04900527000427246,20.405968580783583,16.172067154298464,109170.25,-930.0,-226.0,-128.0,35.5625,22.875,16.1875,3.0,-19.8125,16.3125,333.3125,-73.75,132.375,0.331298828125,-0.69598388671875,-0.146728515625,-0.619873046875,11.0,-23.0,56.0,-941.0,-202.0,-184.0,29,122.78983110834393,-457.78533343400824,
112,6.912691354751587,0.04900479316711426,20.406167139402843,16.20208313264477,109158.0,-949.0,-121.0,-57.0,36.375,22.75,15.375,-9.75,9.625,-3.0,333.3125,-74.125,133.0625,0.32574462890625,-0.6978759765625,-0.14703369140625,-0.62066650390625,-6.0,73.0,125.0,-943.0,-195.0,-182.0,10,100.23186488667515,-458.29259255608196,
113,6.961696147918701,0.04900479316711426,20.406167139402843,16.231676533854895,109158.0,-889.0,-171.0,-278.0,36.75,22.0625,15.375,-21.625,-5.9375,0.3125,332.75,-73.4375,135.25,0.3321533203125,-0.70050048828125,-0.14849853515625,-0.61395263671875,50.0,24.0,-80.0,-940.0,-195.0,-198.0,81,96.38549190934013,-382.3320200160618,
114,7.004700422286987,0.04300427436828613,23.25350246433779,16.27478594763083,109158.0,-912.0,-176.0,-208.0,36.375,21.6875,15.75,-24.0,15.4375,-7.0625,332.125,-73.6875,135.75,0.3330078125,-0.6998291015625,-0.1519775390625,-0.6134033203125,-2.0,32.0,15.0,-941.0,-192.0,-197.0,95,96.10839352747212,-307.1543175939758,
115,7.0507049560546875,0.046004533767700195,21.736988033603343,16.31042579667803,109158.0,-1133.0,-252.0,-232.0,36.75,21.6875,17.0,-36.75,42.0,-19.8125,331.5625,-72.375,138.6875,0.34368896484375,-0.70391845703125,-0.152587890625,-0.6025390625,-198.0,-57.0,-9.0,-934.0,-195.0,-222.0,372,151.2867148219777,-5.841352136582913,
116,7.097709655761719,0.04700469970703125,21.274468430449602,16.343300251206315,109158.0,-1016.0,-399.0,-333.0,36.0625,21.0,17.0,-14.8125,8.0,-20.0,331.6875,-70.5,139.9375,0.35858154296875,-0.70635986328125,-0.14892578125,-0.59185791015625,-91.0,-189.0,-83.0,-924.0,-209.0,-250.0,236,168.22937185758218,67.41612273711411,
117,7.142714262008667,0.04500460624694824,22.219947765187033,16.38032766091603,109158.0,-1064.0,-329.0,-188.0,35.25,22.0625,19.375,-2.6875,3.1875,-17.0625,332.5625,-70.0625,138.875,0.36102294921875,-0.70562744140625,-0.14459228515625,-0.59228515625,-142.0,-110.0,63.0,-922.0,-219.0,-251.0,165,167.58349748606574,51.062639230097616,
118,7.187718629837036,0.04500436782836914,22.220065479280787,16.416891934273636,109158.0,-1011.0,-352.0,-253.0,34.5625,22.5,18.5625,-3.5,2.3125,-7.6875,333.5,-69.3125,138.25,0.36456298828125,-0.7061767578125,-0.13885498046875,-0.5908203125,-93.0,-122.0,5.0,-917.0,-230.0,-258.0,118,157.66679798885258,-3.2198310492073574,
119,7.2377235889434814,0.05000495910644531,19.998016554144257,16.441633690154628,109158.0,-1006.0,-260.0,-153.0,34.5625,21.0,20.25,-1.1875,2.875,-15.875,334.125,-69.0625,137.375,0.36614990234375,-0.705322265625,-0.1358642578125,-0.59161376953125,-90.0,-23.0,104.0,-915.0,-236.0,-258.0,71,140.33343839108207,-71.90242727439588,
120,7.433743476867676,0.057005882263183594,17.542049351735674,16.14260706915917,109153.25,-973.0,-226.0,-288.0,34.1875,22.0625,19.0625,-27.5625,10.3125,2.3125,331.3125,-69.5,141.6875,0.366455078125,-0.70904541015625,-0.1490478515625,-0.58380126953125,-38.0,-40.0,-53.0,-918.0,-212.0,-268.0,20,116.26675071286566,-141.95774641633295,
121,7.484748363494873,0.051004886627197266,19.605964567849295,16.166208150717463,109153.25,-967.0,-258.0,-313.0,34.1875,22.5,19.75,-12.375,5.625,0.6875,330.375,-69.375,143.375,0.36859130859375,-0.7108154296875,-0.1529541015625,-0.5792236328125,-76.0,-36.0,5.0,-918.0,-205.0,-276.0,53,103.61340057029253,-163.1824240450423,
122,7.5367536544799805,0.05200529098510742,19.22881270458359,16.18734080919323,109153.25,-1110.0,-238.0,-275.0,34.1875,21.0,20.25,-6.8125,14.5,-24.9375,330.9375,-68.5625,143.4375,0.37322998046875,-0.71234130859375,-0.1488037109375,-0.575439453125,-69.0,-15.0,10.0,-912.0,-213.0,-287.0,1,83.09072045623402,-209.47129365789647,
123,7.585758447647095,0.04900479316711426,20.406167139402843,16.214594868645126,109153.25,-994.0,-243.0,-232.0,33.75,21.6875,21.5,7.5,-24.5,-2.375,331.875,-68.125,141.9375,0.37615966796875,-0.7105712890625,-0.14422607421875,-0.576904296875,-90.0,0.0,126.0,-910.0,-224.0,-287.0,53,77.07257636498721,-192.1384857653156,
124,7.63576340675354,0.05000495910644531,19.998016554144257,16.239371677012247,109140.0,-1003.0,-256.0,-216.0,33.375,22.5,20.6875,-16.625,8.0625,3.8125,332.0625,-68.25,141.6875,0.37530517578125,-0.71026611328125,-0.1436767578125,-0.57794189453125,-172.0,-50.0,-6.0,-910.0,-225.0,-285.0,85,78.65806109198977,-147.36947864886451,
125,7.683768272399902,0.048004865646362305,20.83122172170432,16.268059572931165,109140.0,-942.0,-315.0,-311.0,33.375,22.0625,20.6875,-11.4375,-12.3125,-2.375,331.8125,-68.3125,141.875,0.375,-0.71026611328125,-0.144775390625,-0.577880859375,-98.0,-92.0,-27.0,-911.0,-223.0,-284.0,123,87.52644887359182,-80.94771248057044,
126,7.728772878646851,0.04500460624694824,22.219947765187033,16.30271738843748,109140.0,-982.0,-323.0,-338.0,33.375,21.6875,21.5,-9.625,-2.5625,3.3125,331.1875,-68.875,141.5625,0.37432861328125,-0.707763671875,-0.14874267578125,-0.580322265625,-67.0,-103.0,-62.0,-914.0,-219.0,-276.0,114,92.82115909887345,-41.22853305694444,
127,7.777777671813965,0.04900479316711426,20.406167139402843,16.32857165103056,109140.0,-898.0,-287.0,-229.0,33.0625,21.25,20.25,0.125,-9.3125,0.875,331.3125,-68.8125,141.8125,0.37335205078125,-0.70880126953125,-0.14825439453125,-0.57989501953125,15.0,-68.0,48.0,-914.0,-218.0,-278.0,114,97.05692727909876,-15.695667755667184,
128,7.822782278060913,0.04500460624694824,22.219947765187033,16.36246484310033,109140.0,-887.0,-251.0,-269.0,33.75,20.5625,22.1875,-8.0625,-10.0,2.4375,330.625,-69.375,141.5625,0.37237548828125,-0.7064208984375,-0.1524658203125,-0.582275390625,30.0,-37.0,0.0,-918.0,-214.0,-270.0,160,109.64554182327902,43.38713731701809,
129,7.8737874031066895,0.05100512504577637,19.60587292164296,16.38347511759101,109140.0,-888.0,-235.0,-388.0,34.1875,21.6875,20.6875,-9.875,7.5625,2.0,330.4375,-69.125,142.3125,0.373779296875,-0.70782470703125,-0.152587890625,-0.57965087890625,28.0,-22.0,-112.0,-916.0,-213.0,-276.0,123,112.31643345862321,45.18274225162194,
130,7.922792196273804,0.04900479316711426,20.406167139402843,16.408356647438104,109140.0,-915.0,-213.0,-245.0,33.375,20.5625,21.5,-0.625,-3.0625,-7.75,330.625,-69.0,142.0,0.37481689453125,-0.7073974609375,-0.1517333984375,-0.5797119140625,0.0,1.0,30.0,-915.0,-215.0,-276.0,109,111.65314676689857,33.43916598276265,
131,7.970797061920166,0.048004865646362305,20.83122172170432,16.43499376315097,109140.0,-852.0,-282.0,-310.0,33.75,20.5625,21.0,-4.375,0.625,-0.9375,330.8125,-68.6875,141.5,0.3782958984375,-0.706298828125,-0.1505126953125,-0.5791015625,124.0,-51.0,-27.0,-913.0,-221.0,-278.0,100,109.32251741351887,17.04136142393712,
132,8.017801761627197,0.04700469970703125,21.274468430449602,16.463365386725506,109149.75,-1058.0,-279.0,-237.0,33.75,20.5625,21.0,0.5625,-6.625,-3.625,330.9375,-68.875,141.3125,0.37652587890625,-0.7061767578125,-0.1502685546875,-0.5804443359375,-143.0,-59.0,38.0,-914.0,-220.0,-275.0,114,110.2580139308151,17.613527363952535,
133,8.06580662727356,0.048004865646362305,20.83122172170432,16.489361343015144,109149.75,-836.0,-290.0,-223.0,33.0625,21.0,21.75,4.5,2.4375,-10.25,331.625,-68.6875,139.8125,0.378173828125,-0.7039794921875,-0.1470947265625,-0.5828857421875,77.0,-61.0,48.0,-913.0,-229.0,-271.0,,110.2580139308151,17.613527363952535,
134,8.110810995101929,0.04500436782836914,22.220065479280787,16.52115923807395,109149.75,-913.0,-273.0,-229.0,33.375,20.1875,20.6875,5.1875,-7.3125,1.125,332.1875,-68.8125,139.125,0.3760986328125,-0.70367431640625,-0.14471435546875,-0.58514404296875,1.0,-41.0,38.0,-914.0,-231.0,-268.0,114,111.00641114465208,17.416708910355833,
135,8.156815767288208,0.0460047721862793,21.736875382207526,16.5505760889438,109149.75,-899.0,-249.0,-212.0,33.375,20.5625,21.5,3.8125,4.0,-6.3125,332.5,-68.75,138.6875,0.3759765625,-0.703369140625,-0.14324951171875,-0.58599853515625,14.0,-14.0,54.0,-914.0,-234.0,-266.0,100,108.80512891572167,4.363567630019,
136,8.202820062637329,0.046004295349121094,21.737100686166794,16.579663940144258,109149.75,-917.0,-269.0,-212.0,33.375,21.25,21.75,5.875,-15.0,-4.4375,332.9375,-68.875,137.25,0.37518310546875,-0.70086669921875,-0.1417236328125,-0.5909423828125,-2.0,-30.0,45.0,-915.0,-239.0,-258.0,118,110.64410313257733,11.485647646226447,
137,8.250824928283691,0.048004865646362305,20.83122172170432,16.604400310369726,109149.75,-845.0,-253.0,-247.0,32.6875,21.25,21.5,-0.125,1.75,-13.6875,333.4375,-68.875,135.8125,0.37725830078125,-0.69793701171875,-0.13922119140625,-0.59259033203125,68.0,-5.0,6.0,-914.0,-247.0,-253.0,114,111.31528250606186,11.984815385799344,
138,8.29582953453064,0.04500460624694824,22.219947765187033,16.634864473237727,109149.75,-902.0,-267.0,-226.0,33.375,21.25,20.6875,-0.0625,-12.625,-3.5625,333.625,-68.75,134.8125,0.37872314453125,-0.69586181640625,-0.13897705078125,-0.59417724609375,11.0,-16.0,20.0,-913.0,-251.0,-252.0,123,113.6522260048495,19.9732048032904,
139,8.34183406829834,0.046004533767700195,21.736988033603343,16.66300226807973,109149.75,-839.0,-306.0,-268.0,33.0625,22.75,19.5,-3.0625,5.75,-1.0,334.0,-68.75,134.25,0.378173828125,-0.6953125,-0.13739013671875,-0.59552001953125,74.0,-52.0,-20.0,-914.0,-254.0,-247.0,104,111.7217808038796,7.58615099603038,
140,8.38883900642395,0.04700493812561035,21.274360522031113,16.688840957943253,109144.5,-920.0,-258.0,-189.0,32.6875,21.6875,19.875,3.5625,-8.5625,1.375,334.0625,-68.75,134.5,0.37677001953125,-0.69635009765625,-0.13677978515625,-0.5953369140625,-34.0,-8.0,60.0,-914.0,-253.0,-248.0,132,115.77742464310369,23.325166633745837,
141,8.439843893051147,0.051004886627197266,19.605964567849295,16.70647014171563,109144.5,-861.0,-265.0,-238.0,33.0625,22.5,21.0,-3.875,5.5625,-1.125,334.0,-68.875,134.3125,0.37664794921875,-0.69573974609375,-0.13751220703125,-0.59600830078125,53.0,-12.0,8.0,-914.0,-252.0,-246.0,165,125.62193971448295,57.26237604242072,
142,8.48884892463684,0.04900503158569336,20.4060678596102,16.727827442879704,109144.5,-987.0,-296.0,-229.0,33.375,21.25,21.0,-2.25,-3.0625,4.0625,333.6875,-68.9375,134.75,0.3768310546875,-0.69598388671875,-0.13909912109375,-0.59521484375,-72.0,-46.0,18.0,-915.0,-250.0,-247.0,184,137.29755177158637,93.46056722188368,
143,8.534853458404541,0.046004533767700195,21.736988033603343,16.754827800726133,109144.5,-861.0,-313.0,-261.0,33.375,22.5,20.25,-5.1875,4.125,-4.25,333.75,-68.875,134.8125,0.377197265625,-0.69622802734375,-0.138671875,-0.59478759765625,53.0,-62.0,-12.0,-914.0,-250.0,-249.0,226,155.03804141726908,151.89341600520078,
144,8.583858251571655,0.04900479316711426,20.406167139402843,16.775673104065344,109144.5,-984.0,-312.0,-244.0,33.375,22.5,21.5,-1.4375,6.6875,-1.0,333.6875,-68.625,135.4375,0.37841796875,-0.69757080078125,-0.13836669921875,-0.592529296875,-71.0,-62.0,10.0,-913.0,-250.0,-254.0,217,167.43043313381528,172.09097612911924,
145,8.632863283157349,0.04900503158569336,20.4060678596102,16.79628128513212,109144.5,-999.0,-301.0,-210.0,33.0625,22.0625,20.6875,-0.25,-0.4375,0.8125,333.75,-68.5625,135.5625,0.37835693359375,-0.697998046875,-0.13800048828125,-0.59210205078125,-85.0,-51.0,44.0,-913.0,-250.0,-255.0,217,177.34434650705225,178.1335787130095,
146,8.682868242263794,0.05000495910644531,19.998016554144257,16.81472019687528,109144.5,-914.0,-307.0,-231.0,33.0625,22.0625,20.6875,-4.6875,-0.375,-6.5625,333.8125,-68.5,135.25,0.37945556640625,-0.697265625,-0.137451171875,-0.5924072265625,-1.0,-54.0,24.0,-912.0,-252.0,-255.0,217,185.2754772056418,174.22823957110273,
147,8.727872848510742,0.04500460624694824,22.219947765187033,16.84259183783629,109144.5,-908.0,-295.0,-225.0,32.6875,22.0625,19.75,1.0625,-3.9375,-4.4375,334.125,-68.3125,134.9375,0.38031005859375,-0.69696044921875,-0.135986328125,-0.59259033203125,-25.0,-64.0,25.0,-911.0,-256.0,-255.0,221,192.42038176451348,171.13447287395726,
148,8.775877475738525,0.0480046272277832,20.831325181528314,16.8644104716771,109144.5,-919.0,-287.0,-203.0,33.0625,22.5,21.5,0.375,1.375,-2.0,334.375,-68.3125,134.25,0.380615234375,-0.6956787109375,-0.135009765625,-0.59405517578125,-7.0,-27.0,49.0,-911.0,-259.0,-252.0,236,201.1363054116108,173.22042624917714,
149,8.822882413864136,0.04700493812561035,21.274360522031113,16.88790499642881,109144.5,-912.0,-291.0,-232.0,32.0,22.5,19.5,0.3125,-3.625,-3.3125,334.75,-68.25,133.875,0.37982177734375,-0.6956787109375,-0.13323974609375,-0.594970703125,-1.0,-29.0,19.0,-911.0,-261.0,-251.0,268,214.50904432928866,195.47563477967665,
150,8.870887041091919,0.0480046272277832,20.831325181528314,16.90924473563542,109144.5,-910.0,-303.0,-234.0,33.375,23.1875,20.25,-1.75,0.4375,-4.9375,335.125,-68.0625,133.4375,0.38037109375,-0.69549560546875,-0.131103515625,-0.5953369140625,-1.0,-38.0,17.0,-909.0,-265.0,-251.0,259,223.40723546343094,193.45273043228335,
151,8.91789174079895,0.04700469970703125,21.274468430449602,16.932253091746094,109144.5,-827.0,-322.0,-220.0,33.375,23.1875,20.25,-6.0,2.1875,-9.6875,335.3125,-67.8125,133.0625,0.38330078125,-0.69427490234375,-0.130126953125,-0.5950927734375,80.0,-51.0,32.0,-908.0,-270.0,-252.0,273,233.32578837074476,196.9645724863051,
152,8.960896015167236,0.04300427436828613,23.25350246433779,16.962589426629258,109144.5,-897.0,-309.0,-246.0,32.6875,22.0625,20.6875,-1.9375,8.4375,-2.0625,335.3125,-67.5625,133.375,0.38507080078125,-0.69476318359375,-0.1297607421875,-0.593505859375,9.0,-38.0,10.0,-906.0,-271.0,-256.0,259,238.46063069659584,181.4522717246769,
153,9.00990080833435,0.04900479316711426,20.406167139402843,16.98131902389777,109144.5,-942.0,-317.0,-202.0,31.5625,23.1875,20.25,1.75,-5.5,-1.6875,335.5625,-67.5,133.25,0.38421630859375,-0.6951904296875,-0.12841796875,-0.59381103515625,-35.0,-44.0,53.0,-906.0,-272.0,-256.0,278,246.36850455727668,177.43569652341515,
154,9.052905321121216,0.043004512786865234,23.253373546076485,17.011113508577694,109144.5,-928.0,-311.0,-218.0,31.875,22.75,20.6875,-1.0,4.8125,-6.125,335.8125,-67.375,133.0,0.38519287109375,-0.69482421875,-0.12701416015625,-0.5938720703125,-22.0,-36.0,38.0,-905.0,-275.0,-257.0,268,250.69480364582134,162.06876697432796,
155,9.100910186767578,0.048004865646362305,20.83122172170432,17.031263557063212,109144.5,-867.0,-319.0,-250.0,32.25,23.1875,20.6875,-5.4375,-2.5625,-11.4375,336.375,-66.9375,132.125,0.3887939453125,-0.69287109375,-0.124267578125,-0.59442138671875,35.0,-35.0,7.0,-902.0,-284.0,-257.0,297,259.95584291665705,168.2387660643003,
156,9.150915145874023,0.05000495910644531,19.998016554144257,17.047475308558344,109149.0,-891.0,-340.0,-229.0,32.0,23.1875,20.6875,-5.0,1.9375,-5.5625,336.4375,-66.8125,131.625,0.39111328125,-0.69122314453125,-0.1240234375,-0.5948486328125,9.0,-52.0,26.0,-901.0,-288.0,-256.0,236,255.16467433332565,115.4282391228088,
157,9.196919679641724,0.046004533767700195,21.736988033603343,17.0709330372358,109149.0,-854.0,-321.0,-246.0,32.0,23.1875,21.0,-1.0,0.0625,-2.0625,336.5625,-66.625,131.4375,0.39288330078125,-0.69061279296875,-0.1231689453125,-0.59454345703125,37.0,-25.0,19.0,-900.0,-291.0,-257.0,221,248.3317394666605,62.6371066120288,
158,9.245924711227417,0.04900503158569336,20.4060678596102,17.08860983998053,109149.0,-889.0,-308.0,-268.0,31.5625,23.5625,21.0,1.6875,-3.375,1.5625,336.5625,-66.6875,131.375,0.392333984375,-0.69061279296875,-0.12322998046875,-0.59490966796875,10.0,-17.0,-12.0,-900.0,-290.0,-256.0,268,252.2653915733284,66.16375965457577,
159,9.290928840637207,0.04500412940979004,22.22018319462177,17.1134665572463,109149.0,-855.0,-311.0,-215.0,30.875,23.5625,21.0625,-3.0625,4.625,-5.875,336.75,-66.5,131.125,0.393310546875,-0.69012451171875,-0.12213134765625,-0.59503173828125,74.0,-18.0,35.0,-899.0,-293.0,-256.0,250,251.81231325866273,50.91751109298426,
160,9.33893370628357,0.048004865646362305,20.83122172170432,17.132576912110025,109149.0,-894.0,-334.0,-220.0,31.1875,24.0,19.5,-0.25,-3.875,1.25,336.9375,-66.5625,131.0625,0.3917236328125,-0.69061279296875,-0.12127685546875,-0.595703125,-3.0,-33.0,22.0,-900.0,-293.0,-255.0,292,259.8498506069302,74.22035339403526,
161,9.382938146591187,0.04400444030761719,22.724979411382254,17.15880436220196,109149.0,-894.0,-339.0,-243.0,30.875,22.75,20.25,-3.4375,2.0,-2.5,336.9375,-66.5,131.125,0.39239501953125,-0.69061279296875,-0.12127685546875,-0.5953369140625,25.0,-28.0,13.0,-899.0,-293.0,-256.0,278,263.4798804855442,75.87475356606924,
162,9.430943012237549,0.048004865646362305,20.83122172170432,17.177497498372066,109149.0,-870.0,-357.0,-241.0,32.6875,23.5625,21.5,-2.5625,-0.125,-1.75,337.0625,-66.375,130.5625,0.39434814453125,-0.68896484375,-0.12066650390625,-0.5960693359375,28.0,-59.0,13.0,-898.0,-297.0,-255.0,,263.4798804855442,75.87475356606924,
163,9.471946954727173,0.04100394248962402,24.387898803951554,17.208711237413702,109149.0,-905.0,-357.0,-261.0,32.6875,23.5625,21.5,-0.25,4.5625,2.5625,337.125,-66.3125,130.625,0.39471435546875,-0.689208984375,-0.12042236328125,-0.5955810546875,-7.0,-58.0,-4.0,-898.0,-298.0,-256.0,315,273.78390438843536,110.95850129629697,
164,9.521952152252197,0.050005197525024414,19.9979212060819,17.22335896859234,109149.0,-929.0,-347.0,-213.0,31.1875,23.1875,20.6875,1.5,-2.875,-2.625,337.25,-66.3125,130.5625,0.39434814453125,-0.68927001953125,-0.119873046875,-0.5958251953125,-30.0,-49.0,42.0,-898.0,-298.0,-256.0,287,276.4271235107483,99.33857858472216,
165,9.57095718383789,0.04900503158569336,20.4060678596102,17.239655013672948,109145.0,-919.0,-338.0,-225.0,31.5625,24.0,21.0,-0.0625,-0.1875,1.75,337.1875,-66.25,130.625,0.39508056640625,-0.6890869140625,-0.1199951171875,-0.59552001953125,-21.0,-39.0,31.0,-897.0,-299.0,-256.0,268,274.74169880859864,72.59228469891193,
166,9.617961883544922,0.04700469970703125,21.274468430449602,17.259373868387268,109145.0,-923.0,-347.0,-243.0,31.5625,24.0,21.0,0.6875,-0.75,1.5,337.25,-66.25,130.375,0.39495849609375,-0.6885986328125,-0.1197509765625,-0.59625244140625,-25.0,-47.0,11.0,-898.0,-300.0,-255.0,273,274.3933590468789,56.5916791063742,
167,9.665966749191284,0.048004865646362305,20.83122172170432,17.27711302275815,109145.0,-872.0,-335.0,-203.0,32.6875,23.1875,21.0,0.4375,-4.0625,-0.875,337.4375,-66.3125,129.8125,0.39483642578125,-0.68743896484375,-0.11920166015625,-0.59771728515625,25.0,-32.0,48.0,-898.0,-302.0,-252.0,268,273.1146872375032,39.9460840910196,
168,9.711971044540405,0.046004295349121094,21.737100686166794,17.298239382050195,109145.0,-923.0,-348.0,-234.0,31.5625,23.1875,19.875,0.1875,-2.9375,-0.875,337.5,-66.375,129.625,0.39422607421875,-0.687255859375,-0.11895751953125,-0.598388671875,-25.0,-46.0,15.0,-898.0,-302.0,-250.0,315,281.4917497900026,68.3754777044151,
169,9.76297640800476,0.05100536346435547,19.605781276293403,17.310294825811035,109145.0,-897.0,-350.0,-232.0,31.5625,24.0,19.5,0.125,-6.5625,-3.75,337.875,-66.3125,128.875,0.39404296875,-0.6861572265625,-0.11712646484375,-0.60015869140625,0.0,-44.0,14.0,-898.0,-306.0,-247.0,278,280.7933998320021,51.96204285735876,
170,9.812981367111206,0.05000495910644531,19.998016554144257,17.323990909609304,109145.0,-887.0,-343.0,-234.0,31.1875,23.5625,20.25,1.9375,-1.3125,-1.4375,338.125,-66.3125,128.25,0.3941650390625,-0.684814453125,-0.11614990234375,-0.601806640625,10.0,-33.0,9.0,-898.0,-309.0,-243.0,259,276.43471986560166,24.13664346142852,
171,9.860986232757568,0.048004865646362305,20.83122172170432,17.341064672816284,109145.0,-877.0,-351.0,-233.0,31.5625,22.75,21.5,1.0,-0.4375,-2.8125,338.125,-66.1875,128.0,0.39581298828125,-0.68365478515625,-0.11614990234375,-0.60205078125,35.0,-37.0,16.0,-897.0,-311.0,-243.0,254,271.94777589248133,0.6156098177558995,
172,9.904990434646606,0.044004201889038086,22.72510253728998,17.364983957820115,109143.0,-925.0,-331.0,-205.0,32.25,24.6875,20.25,-0.125,1.75,-1.5,338.3125,-66.125,127.9375,0.39581298828125,-0.68414306640625,-0.11480712890625,-0.60174560546875,-19.0,-18.0,38.0,-896.0,-312.0,-244.0,254,268.3582207139851,-15.822114044712807,
173,9.95399522781372,0.04900479316711426,20.406167139402843,17.379956092062287,109143.0,-894.0,-362.0,-233.0,31.5625,22.75,20.6875,-0.5,2.8125,-2.1875,338.4375,-65.875,128.0,0.39776611328125,-0.68377685546875,-0.11431884765625,-0.60101318359375,1.0,-46.0,13.0,-895.0,-315.0,-246.0,287,272.08657657118806,2.558599319680887,
174,10.005000591278076,0.05100536346435547,19.605781276293403,17.39130332003035,109143.0,-881.0,-333.0,-192.0,31.5625,22.75,20.6875,2.4375,-0.3125,-0.875,338.625,-65.8125,127.5625,0.39825439453125,-0.6829833984375,-0.11383056640625,-0.6019287109375,-21.0,-20.0,17.0,-894.0,-317.0,-245.0,231,263.86926125695044,-30.1744978901111,
175,10.051004886627197,0.046004295349121094,21.737100686166794,17.41119440035657,109143.0,-893.0,-359.0,-248.0,32.0,24.25,20.6875,-0.25,3.9375,-1.875,338.6875,-65.6875,127.6875,0.39874267578125,-0.68310546875,-0.11322021484375,-0.601318359375,-2.0,-31.0,1.0,-894.0,-318.0,-246.0,268,264.69540900556035,-20.547986953452142,
176,10.10000991821289,0.04900503158569336,20.4060678596102,17.42572546217278,109143.0,-895.0,-373.0,-206.0,32.0,24.0,19.5,2.6875,3.75,-3.4375,339.125,-65.5,127.4375,0.39874267578125,-0.68341064453125,-0.1104736328125,-0.6014404296875,-3.0,-51.0,21.0,-892.0,-321.0,-246.0,282,268.1563272044483,-2.3136432381482166,
177,10.147014617919922,0.04700469970703125,21.274468430449602,17.443554253623805,109143.0,-942.0,-388.0,-193.0,31.1875,24.6875,20.6875,-0.25,5.6875,-9.9375,339.5625,-65.1875,127.4375,0.4000244140625,-0.68365478515625,-0.1080322265625,-0.60076904296875,-52.0,-62.0,56.0,-890.0,-326.0,-249.0,254,265.32506176355867,-13.89764803860449,
178,10.195019245147705,0.0480046272277832,20.831325181528314,17.45950603131217,109143.0,-897.0,-335.0,-146.0,31.1875,24.6875,20.6875,5.5625,-6.4375,-2.125,340.0625,-64.875,126.9375,0.4012451171875,-0.682861328125,-0.10546875,-0.601318359375,-9.0,-2.0,102.0,-888.0,-332.0,-249.0,240,260.26004941084693,-32.220302304442775,
179,10.244024276733398,0.04900503158569336,20.4060678596102,17.47360169836295,109143.0,-1114.0,-463.0,-270.0,31.1875,25.0,20.25,-12.625,21.5,-21.0625,340.375,-64.4375,127.0,0.4052734375,-0.682373046875,-0.10357666015625,-0.5994873046875,-230.0,-125.0,-15.0,-884.0,-337.0,-254.0,226,253.40803952867753,-53.74075756960791,
180,10.293029069900513,0.04900479316711426,20.406167139402843,17.48756355176016,109146.75,-1063.0,-475.0,-230.0,31.1875,24.0,20.6875,6.0,6.875,-24.25,341.875,-62.8125,126.875,0.41485595703125,-0.68182373046875,-0.09478759765625,-0.59503173828125,-190.0,-117.0,37.0,-872.0,-357.0,-268.0,189,240.52643162294206,-95.56545484542457,
181,10.338033676147461,0.04500460624694824,22.219947765187033,17.508165060210064,109146.75,-863.0,-456.0,-236.0,29.0,26.1875,21.75,8.25,-2.8125,-31.3125,343.9375,-61.375,125.3125,0.42315673828125,-0.67767333984375,-0.08392333984375,-0.59552001953125,-2.0,-73.0,35.0,-861.0,-382.0,-271.0,90,210.42114529835365,-210.23994179401043,
182,10.388038635253906,0.05000495910644531,19.998016554144257,17.520150472134965,109146.75,-690.0,-388.0,-174.0,29.0,26.5,21.75,1.5,-2.8125,-19.3125,345.0625,-60.75,123.8125,0.42718505859375,-0.67352294921875,-0.078369140625,-0.59814453125,165.0,8.0,91.0,-855.0,-397.0,-266.0,53,178.93691623868293,-294.1163802211613,
183,10.435043334960938,0.04700469970703125,21.274468430449602,17.537061814289537,109146.75,-848.0,-449.0,-301.0,28.5625,25.75,20.25,2.0,-3.0625,-19.8125,345.625,-60.1875,123.0,0.43145751953125,-0.67022705078125,-0.07525634765625,-0.59918212890625,3.0,-41.0,-35.0,-851.0,-408.0,-265.0,34,149.94953299094635,-358.63133813399213,
184,10.479047775268555,0.04400444030761719,22.724979411382254,17.55884732525561,109146.75,-703.0,-404.0,-228.0,27.875,27.25,21.0625,7.125,-7.75,-13.8125,346.4375,-59.75,121.75,0.4339599609375,-0.6663818359375,-0.0712890625,-0.60211181640625,132.0,22.0,32.0,-847.0,-419.0,-259.0,6,121.15962639275709,-417.75507744708756,
185,10.62206220626831,0.04700469970703125,21.274468430449602,17.41658035958662,109146.75,-805.0,-385.0,-150.0,27.0625,26.875,21.0625,7.75,-10.1875,-1.9375,347.625,-59.5625,119.3125,0.43310546875,-0.66058349609375,-0.06591796875,-0.60968017578125,-26.0,47.0,170.0,-845.0,-432.0,-243.0,,121.15962639275709,-417.75507744708756,
186,11.035103559494019,0.04400467872619629,22.724856286808727,16.855301719391246,109151.75,-866.0,-478.0,-160.0,27.5,28.75,20.25,7.8125,-5.5,7.125,350.0625,-58.5625,116.6875,0.43408203125,-0.65478515625,-0.0533447265625,-0.616455078125,-29.0,-21.0,69.0,-837.0,-456.0,-229.0,,121.15962639275709,-417.75507744708756,
187,12.503250122070312,0.04500436782836914,22.220065479280787,14.956111265015322,109160.0,-53.0,-19.0,-4.0,26.375,31.6875,19.0625,46.0625,-98.9375,103.5,348.625,-61.125,105.0625,0.41595458984375,-0.62432861328125,-0.0653076171875,-0.657958984375,805.0,436.0,118.0,-858.0,-456.0,-123.0,76,112.12770111420568,-374.34205617634683,
188,12.549254894256592,0.0460047721862793,21.736875382207526,14.980969116026309,109175.25,-63.0,-9.0,-3.0,28.5625,31.0,16.6875,49.5625,-96.625,94.125,344.0,-66.625,94.875,0.37322998046875,-0.61456298828125,-0.0966796875,-0.688232421875,836.0,377.0,29.0,-900.0,-387.0,-33.0,100,109.70216089136454,-310.0183780527634,
189,12.595259428024292,0.046004533767700195,21.736988033603343,15.005645662166943,109175.25,-80.0,0.0,-4.0,32.375,29.875,12.75,52.6875,-93.5625,86.0625,341.125,-70.0,83.4375,0.33868408203125,-0.60498046875,-0.11798095703125,-0.71087646484375,831.0,336.0,-49.0,-921.0,-332.0,37.0,132,114.16172871309165,-228.6271879670258,
190,12.642264127731323,0.04700469970703125,21.274468430449602,15.028953522907912,109175.25,-101.0,14.0,-7.0,34.5625,26.875,8.75,57.1875,-88.625,75.875,338.4375,-72.625,65.0625,0.2962646484375,-0.59112548828125,-0.14031982421875,-0.7369384765625,835.0,280.0,-130.0,-935.0,-265.0,123.0,287,148.72938297047332,-35.820056530947994,
191,12.692269086837769,0.05000495910644531,19.998016554144257,15.048530620743948,109175.25,-110.0,14.0,13.0,36.75,26.1875,3.6875,59.3125,-87.75,65.75,336.5,-72.9375,44.625,0.2548828125,-0.57525634765625,-0.158203125,-0.760986328125,826.0,212.0,-197.0,-937.0,-201.0,204.0,414,201.78350637637868,183.53940240262315,
192,12.737273693084717,0.04500460624694824,22.219947765187033,15.073869387311673,109175.25,-110.0,14.0,6.0,38.0,24.25,-0.6875,59.375,-87.25,57.9375,335.6875,-72.0625,33.5,0.23095703125,-0.56439208984375,-0.166748046875,-0.7747802734375,818.0,170.0,-244.0,-933.0,-166.0,251.0,606,282.62680510110295,506.09829688785544,
193,12.786278486251831,0.04900479316711426,20.406167139402843,15.094305994314066,109175.25,-107.0,20.0,42.0,39.5,24.0,-3.75,58.1875,-88.6875,47.8125,334.8125,-69.375,18.8125,0.19287109375,-0.54425048828125,-0.17779541015625,-0.796875,813.0,139.0,-284.0,-917.0,-111.0,326.0,717,369.5014440808824,759.4343181496165,
194,12.83228325843811,0.0460047721862793,21.736875382207526,15.118120142214881,109175.25,-139.0,20.0,60.0,37.5625,21.1875,-9.6875,54.0,-91.0625,35.9375,334.3125,-65.5625,8.875,0.157470703125,-0.5206298828125,-0.18609619140625,-0.8182373046875,753.0,82.0,-340.0,-892.0,-62.0,400.0,884,472.40115526470595,1054.891094293277,
195,12.879287958145142,0.04700469970703125,21.274468430449602,15.140588566208566,109175.25,-143.0,-2.0,58.0,36.0625,22.0,-15.6875,44.375,-95.0625,15.25,334.5,-61.1875,3.25,0.1279296875,-0.4931640625,-0.18975830078125,-0.83929443359375,715.0,24.0,-412.0,-859.0,-27.0,471.0,1095,596.9209242117647,1373.7312541208378,
196,12.926292419433594,0.04700446128845215,21.27457633996277,15.162893863156807,109175.25,-172.0,4.0,101.0,36.0625,22.0,-15.6875,35.1875,-96.75,-3.0625,335.125,-57.5,1.25,0.11004638671875,-0.4683837890625,-0.1883544921875,-0.856201171875,654.0,16.0,-424.0,-827.0,-11.0,526.0,1282,733.9367393694118,1681.9756871673887,
197,12.970296859741211,0.04400444030761719,22.724979411382254,15.18854981735018,109194.0,-167.0,29.0,94.0,31.0,23.0625,-22.0625,18.25,-105.4375,-21.25,336.4375,-52.5625,0.9375,0.09576416015625,-0.43243408203125,-0.1826171875,-0.8778076171875,611.0,39.0,-501.0,-778.0,-9.0,595.0,1484,883.9493914955294,2027.3874359364854,
198,13.018301725387573,0.048004865646362305,20.83122172170432,15.209357117132363,109194.0,-157.0,0.0,143.0,24.0625,26.375,-26.875,-0.6875,-113.375,-40.125,338.125,-47.25,2.1875,0.0899658203125,-0.39117431640625,-0.17340087890625,-0.89935302734375,563.0,25.0,-521.0,-720.0,-25.0,664.0,1690,1045.1595131964236,2293.5507065360416,
199,13.065306425094604,0.04700469970703125,21.274468430449602,15.231177404134941,109194.0,-145.0,-7.0,169.0,18.375,26.75,-25.25,-21.125,-130.625,-54.375,340.125,-41.0,5.0,0.09515380859375,-0.33941650390625,-0.1611328125,-0.921875,511.0,51.0,-566.0,-643.0,-64.0,736.0,1957,1227.527610557139,2610.7974312331735,
200,13.110311031341553,0.04500460624694824,22.219947765187033,15.255168204772513,109194.0,-99.0,-4.0,198.0,22.875,21.875,-21.375,-50.125,-158.5,-68.0625,342.1875,-33.25,8.875,0.11114501953125,-0.27325439453125,-0.14752197265625,-0.94403076171875,465.0,101.0,-586.0,-538.0,-126.0,809.0,2312,1444.4220884457113,3052.514738834857,
201,13.159315824508667,0.04900479316711426,20.406167139402843,15.274350329494032,109194.0,-35.0,-99.0,247.0,25.5625,20.6875,-21.25,-87.875,-201.6875,-75.625,343.9375,-23.4375,13.6875,0.13909912109375,-0.1871337890625,-0.1353759765625,-0.96295166015625,321.0,97.0,-626.0,-390.0,-213.0,874.0,2645,1684.537670756569,3421.979532149966,
202,13.210320949554443,0.05100512504577637,19.60587292164296,15.291074363095852,109194.0,3.0,-165.0,244.0,21.5625,19.6875,-21.1875,-127.6875,-251.25,-97.8125,345.875,-11.0,19.75,0.1800537109375,-0.07574462890625,-0.1204833984375,-0.97332763671875,200.0,163.0,-656.0,-187.0,-325.0,905.0,2916,1930.8301366052553,3703.33938311746,
203,13.26132607460022,0.05100512504577637,19.60587292164296,15.307669750222901,109194.0,154.0,-194.0,258.0,15.0625,24.1875,-26.5625,-159.5,-308.25,-110.1875,347.4375,0.9375,25.5625,0.22930908203125,0.06256103515625,-0.1024169921875,-0.9659423828125,112.0,245.0,-632.0,72.0,-447.0,869.0,3231,2190.8641092842045,3982.3101112246586,
204,13.310330867767334,0.04900479316711426,20.406167139402843,15.326440944756081,109208.5,268.0,-250.0,200.0,5.1875,29.25,-27.0625,-181.0625,-370.5625,-117.1875,349.3125,18.1875,34.6875,0.2794189453125,0.22607421875,-0.08367919921875,-0.92938232421875,-112.0,306.0,-502.0,366.0,-546.0,727.0,3581,2468.8912874273637,4320.541902276895,
205,13.36033582687378,0.05000495910644531,19.998016554144257,15.343925680943643,109208.5,376.0,-192.0,121.0,-6.6875,34.25,-22.0,-202.125,-436.3125,-141.9375,351.4375,37.25,48.5625,0.32257080078125,0.40838623046875,-0.0596923828125,-0.851806640625,-266.0,394.0,-311.0,644.0,-586.0,449.0,3909,2756.913029941891,4608.406236773315,
206,13.410341024398804,0.050005197525024414,19.9979212060819,15.36127974860618,109208.5,430.0,-180.0,-1.0,-15.5,37.0625,-11.5625,-217.0625,-472.125,-175.3125,354.8125,54.6875,75.8125,0.3497314453125,0.5919189453125,-0.02545166015625,-0.7257080078125,-396.0,350.0,-91.0,825.0,-527.0,53.0,4307,3066.930423953513,4926.665673010504,
207,13.460345983505249,0.05000495910644531,19.998016554144257,15.378505147911103,109208.5,601.0,-90.0,-144.0,-20.875,35.5625,2.0625,-244.5625,-450.5625,-223.5625,3.625,60.625,126.3125,0.35418701171875,0.72076416015625,0.01898193359375,-0.59552001953125,-253.0,296.0,140.0,855.0,-386.0,-284.0,4686,3390.7443391628103,5236.459745771962,
208,13.504350185394287,0.044004201889038086,22.72510253728998,15.402444186093728,109208.5,507.0,75.0,-368.0,-21.6875,30.6875,17.875,-271.875,-361.625,-204.25,25.0625,49.625,167.875,0.34747314453125,0.83416748046875,0.077392578125,-0.4180908203125,-254.0,282.0,198.0,778.0,-186.0,-566.0,5061,3724.795471330249,5707.437042858139,
209,13.55235505104065,0.048004865646362305,20.83122172170432,15.421673887148598,0,0,0,0,0,0,0,0,0,0,0,0,0,0,0,0,0,0,0,0,0,0,0,5455,4070.836377064199,6007.640600711172,
210,13.602360010147095,0.05000495910644531,19.998016554144257,15.438497425692608,0,0,0,0,0,0,0,0,0,0,0,0,0,0,0,0,0,0,0,0,0,0,0,,4070.836377064199,6007.640600711172,
211,13.671366930007935,0.06900691986083984,14.491300322005555,15.433716400140359,0,0,0,0,0,0,0,0,0,0,0,0,0,0,0,0,0,0,0,0,0,0,0,,4070.836377064199,6007.640600711172,
212,13.738373756408691,0.06700682640075684,14.923852594050105,15.431229617050272,0,0,0,0,0,0,0,0,0,0,0,0,0,0,0,0,0,0,0,0,0,0,0,,4070.836377064199,6007.640600711172,
213,13.8063805103302,0.06800675392150879,14.704421874835665,15.42764954512367,109223.25,753.0,-67.0,17.0,-38.25,-5.25,25.0625,30.0,429.0,304.375,54.0,84.8125,-2.5625,0.28033447265625,0.6185302734375,0.3333740234375,-0.65399169921875,-223.0,-112.0,-59.0,976.0,44.0,76.0,,4070.836377064199,6007.640600711172,
214,13.865386486053467,0.0590059757232666,16.947436047662723,15.434117196462747,109223.25,608.0,-62.0,285.0,-41.1875,4.0625,11.0625,-21.0625,317.6875,302.625,37.6875,59.9375,29.9375,0.30499267578125,0.43597412109375,0.27362060546875,-0.80126953125,-240.0,183.0,-140.0,848.0,-245.0,425.0,8266,4909.869101651359,7650.00316893636,
215,13.916391372680664,0.051004886627197266,19.605964567849295,15.449407410463287,109223.25,388.0,-139.0,487.0,-38.5625,14.0,0.1875,-62.6875,157.3125,257.0625,27.8125,43.375,38.5625,0.341796875,0.31512451171875,0.2130126953125,-0.859375,-285.0,305.0,-68.0,673.0,-444.0,556.0,8806,5689.095281321088,9175.498708938143,
216,13.963396072387695,0.04700469970703125,21.274468430449602,15.469016196363231,109223.25,288.0,-322.0,381.0,-29.375,21.6875,-7.1875,-80.6875,7.6875,194.25,19.4375,33.75,46.875,0.39093017578125,0.251708984375,0.14990234375,-0.87255859375,-257.0,272.0,-175.0,545.0,-594.0,556.0,9219,6395.0762250568705,10344.2728271517,
217,14.009400844573975,0.0460047721862793,21.736875382207526,15.489598906297763,109223.25,185.0,-330.0,414.0,-23.1875,30.25,-4.5625,-79.875,-82.6875,125.9375,13.8125,30.5,53.25,0.428955078125,0.2418212890625,0.10491943359375,-0.864013671875,-312.0,346.0,-90.0,498.0,-677.0,505.0,,6395.0762250568705,10344.2728271517,
218,14.057405710220337,0.048004865646362305,20.83122172170432,15.507840101783835,109223.25,285.0,-444.0,278.0,-24.5625,38.1875,6.6875,-77.3125,-182.5625,27.3125,8.375,31.5,61.5625,0.46905517578125,0.278076171875,0.0614013671875,-0.83599853515625,-227.0,290.0,-118.0,512.0,-735.0,397.0,10166,7149.260980045497,11417.536231780825,
219,14.123412370681763,0.06600666046142578,15.149986274254836,15.506167649300782,0,0,0,0,0,0,0,0,0,0,0,0,0,0,0,0,0,0,0,0,0,0,0,,7149.260980045497,11417.536231780825,
220,14.192419052124023,0.06900668144226074,14.491350389552059,15.501233383259988,0,0,0,0,0,0,0,0,0,0,0,0,0,0,0,0,0,0,0,0,0,0,0,,7149.260980045497,11417.536231780825,
221,14.245424509048462,0.05300545692443848,18.865982070969455,15.513753195604975,109264.0,1050.0,1639.0,2863.0,-32.5,35.75,11.5,-1088.8125,-1994.0625,205.5625,100.6875,-2.125,161.25,0.759765625,0.62921142578125,-0.11846923828125,-0.11322021484375,1087.0,1954.0,3791.0,-36.0,-314.0,-928.0,,7149.260980045497,11417.536231780825,
222,14.29742956161499,0.05200505256652832,19.228900859598856,15.527266565174363,0,0,0,0,0,0,0,0,0,0,0,0,0,0,0,0,0,0,0,0,0,0,0,,7149.260980045497,11417.536231780825,
223,14.365436553955078,0.06800699234008789,14.704370324145813,15.523370916187288,0,0,0,0,0,0,0,0,0,0,0,0,0,0,0,0,0,0,0,0,0,0,0,,7149.260980045497,11417.536231780825,
224,14.433443069458008,0.06800651550292969,14.704473425886972,15.519512490681924,0,0,0,0,0,0,0,0,0,0,0,0,0,0,0,0,0,0,0,0,0,0,0,,7149.260980045497,11417.536231780825,
225,14.503450155258179,0.0700070858001709,14.284268350412592,15.513550058185775,0,0,0,0,0,0,0,0,0,0,0,0,0,0,0,0,0,0,0,0,0,0,0,,7149.260980045497,11417.536231780825,
226,14.570456981658936,0.06700682640075684,14.923852594050105,15.51083814903577,0,0,0,0,0,0,0,0,0,0,0,0,0,0,0,0,0,0,0,0,0,0,0,,7149.260980045497,11417.536231780825,
227,14.62046194076538,0.05000495910644531,19.998016554144257,15.526185213551232,0,0,0,0,0,0,0,0,0,0,0,0,0,0,0,0,0,0,0,0,0,0,0,,7149.260980045497,11417.536231780825,
228,14.687468528747559,0.06700658798217773,14.923905695153106,15.523437517754614,104938.0,-186.0,502.0,-507.0,45.0625,-8.5625,-1.0,-69.25,-200.5625,39.3125,126.4375,-14.375,-143.125,0.8411865234375,0.424072265625,0.02105712890625,0.3348388671875,88.0,129.0,236.0,-243.0,569.0,-759.0,,7149.260980045497,11417.536231780825,
229,14.745474338531494,0.05800580978393555,17.239652436969262,15.530188771316675,104938.0,-445.0,709.0,140.0,42.75,-8.25,-6.0,73.6875,-135.0,74.5,132.375,-18.3125,-142.625,0.8570556640625,0.3778076171875,-0.02984619140625,0.34906005859375,-454.0,159.0,1057.0,-308.0,564.0,-739.0,12459,8211.208784036397,12795.551194825835,
230,14.817481517791748,0.0720071792602539,13.887504138798755,15.522205964882279,102572.25,-602.0,-11.0,-213.0,39.6875,-11.875,-12.875,-18.875,-22.375,99.0,15.0,-22.5625,-138.6875,0.83587646484375,0.38482666015625,-0.05126953125,0.3880615234375,-225.0,-609.0,466.0,-376.0,597.0,-680.0,12464,9061.767027229118,12598.867180386333,
231,14.874487400054932,0.057005882263183594,17.542049351735674,15.529946934450118,102572.25,-1019.0,484.0,-195.0,37.5,-10.875,-15.875,254.25,96.1875,-53.3125,132.375,-18.1875,-145.75,0.85870361328125,0.37518310546875,-0.0347900390625,0.35687255859375,-856.0,-240.0,199.0,-314.0,559.0,-741.0,12534,9756.213621783296,12515.4970310719,
232,14.940493822097778,0.06600642204284668,15.150040996781662,15.528268527299932,0,0,0,0,0,0,0,0,0,0,0,0,0,0,0,0,0,0,0,0,0,0,0,,9756.213621783296,12515.4970310719,
233,15.01050090789795,0.0700070858001709,14.284268350412592,15.522466667145288,0,0,0,0,0,0,0,0,0,0,0,0,0,0,0,0,0,0,0,0,0,0,0,,9756.213621783296,12515.4970310719,
234,15.078507900238037,0.06800699234008789,14.704370324145813,15.518776894118679,0,0,0,0,0,0,0,0,0,0,0,0,0,0,0,0,0,0,0,0,0,0,0,,9756.213621783296,12515.4970310719,
235,15.148514747619629,0.0700068473815918,14.28431699758199,15.513072001789936,0,0,0,0,0,0,0,0,0,0,0,0,0,0,0,0,0,0,0,0,0,0,0,,9756.213621783296,12515.4970310719,
236,15.215521335601807,0.06700658798217773,14.923905695153106,15.510477412811284,0,0,0,0,0,0,0,0,0,0,0,0,0,0,0,0,0,0,0,0,0,0,0,,9756.213621783296,12515.4970310719,
237,15.284528493881226,0.06900715827941895,14.491250254805019,15.505875768093007,0,0,0,0,0,0,0,0,0,0,0,0,0,0,0,0,0,0,0,0,0,0,0,,9756.213621783296,12515.4970310719,
238,15.350534915924072,0.06600642204284668,15.150040996781662,15.50434569893116,0,0,0,0,0,0,0,0,0,0,0,0,0,0,0,0,0,0,0,0,0,0,0,,9756.213621783296,12515.4970310719,
239,15.418541669845581,0.06800675392150879,14.704421874835665,15.500817464949888,0,0,0,0,0,0,0,0,0,0,0,0,0,0,0,0,0,0,0,0,0,0,0,,9756.213621783296,12515.4970310719,
240,15.48654842376709,0.06800675392150879,14.704421874835665,15.497320218343411,0,0,0,0,0,0,0,0,0,0,0,0,0,0,0,0,0,0,0,0,0,0,0,,9756.213621783296,12515.4970310719,
241,15.55655550956726,0.0700070858001709,14.284268350412592,15.491861283288921,0,0,0,0,0,0,0,0,0,0,0,0,0,0,0,0,0,0,0,0,0,0,0,,9756.213621783296,12515.4970310719,
242,15.6255624294281,0.06900691986083984,14.491300322005555,15.487442522019814,0,0,0,0,0,0,0,0,0,0,0,0,0,0,0,0,0,0,0,0,0,0,0,,9756.213621783296,12515.4970310719,
243,15.693569421768188,0.06800699234008789,14.704370324145813,15.484049133076144,0,0,0,0,0,0,0,0,0,0,0,0,0,0,0,0,0,0,0,0,0,0,0,,9756.213621783296,12515.4970310719,
244,15.761575937271118,0.06800651550292969,14.704473425886972,15.480685495605648,0,0,0,0,0,0,0,0,0,0,0,0,0,0,0,0,0,0,0,0,0,0,0,,9756.213621783296,12515.4970310719,
245,15.827582597732544,0.06600666046142578,15.149986274254836,15.479306361989774,0,0,0,0,0,0,0,0,0,0,0,0,0,0,0,0,0,0,0,0,0,0,0,,9756.213621783296,12515.4970310719,
246,15.894589185714722,0.06700658798217773,14.923905695153106,15.47696496749301,0,0,0,0,0,0,0,0,0,0,0,0,0,0,0,0,0,0,0,0,0,0,0,,9756.213621783296,12515.4970310719,
247,15.96259617805481,0.06800699234008789,14.704370324145813,15.473673407811487,0,0,0,0,0,0,0,0,0,0,0,0,0,0,0,0,0,0,0,0,0,0,0,,9756.213621783296,12515.4970310719,
248,16.03260326385498,0.0700070858001709,14.284268350412592,15.468479816943297,0,0,0,0,0,0,0,0,0,0,0,0,0,0,0,0,0,0,0,0,0,0,0,,9756.213621783296,12515.4970310719,
249,16.10060977935791,0.06800651550292969,14.704473425886972,15.465252770689165,0,0,0,0,0,0,0,0,0,0,0,0,0,0,0,0,0,0,0,0,0,0,0,,9756.213621783296,12515.4970310719,
250,16.17061686515808,0.0700070858001709,14.284268350412592,15.460139961553411,0,0,0,0,0,0,0,0,0,0,0,0,0,0,0,0,0,0,0,0,0,0,0,,9756.213621783296,12515.4970310719,
251,16.23962378501892,0.06900691986083984,14.491300322005555,15.45602307804371,0,0,0,0,0,0,0,0,0,0,0,0,0,0,0,0,0,0,0,0,0,0,0,,9756.213621783296,12515.4970310719,
252,16.30763053894043,0.06800675392150879,14.704421874835665,15.452888719686031,0,0,0,0,0,0,0,0,0,0,0,0,0,0,0,0,0,0,0,0,0,0,0,,9756.213621783296,12515.4970310719,
253,16.374637365341187,0.06700682640075684,14.923852594050105,15.450723845372218,0,0,0,0,0,0,0,0,0,0,0,0,0,0,0,0,0,0,0,0,0,0,0,,9756.213621783296,12515.4970310719,
254,16.440643787384033,0.06600642204284668,15.150040996781662,15.449516654263295,0,0,0,0,0,0,0,0,0,0,0,0,0,0,0,0,0,0,0,0,0,0,0,,9756.213621783296,12515.4970310719,
255,16.50665044784546,0.06600666046142578,15.149986274254836,15.448318894599481,0,0,0,0,0,0,0,0,0,0,0,0,0,0,0,0,0,0,0,0,0,0,0,,9756.213621783296,12515.4970310719,
256,16.570656776428223,0.06400632858276367,15.623455088615893,15.448995381049729,0,0,0,0,0,0,0,0,0,0,0,0,0,0,0,0,0,0,0,0,0,0,0,,9756.213621783296,12515.4970310719,
257,16.63766360282898,0.06700682640075684,14.923852594050105,15.446880411520107,0,0,0,0,0,0,0,0,0,0,0,0,0,0,0,0,0,0,0,0,0,0,0,,9756.213621783296,12515.4970310719,
258,16.70767068862915,0.0700070858001709,14.284268350412592,15.442008931597435,0,0,0,0,0,0,0,0,0,0,0,0,0,0,0,0,0,0,0,0,0,0,0,,9756.213621783296,12515.4970310719,
259,16.774677276611328,0.06700658798217773,14.923905695153106,15.439939363907744,0,0,0,0,0,0,0,0,0,0,0,0,0,0,0,0,0,0,0,0,0,0,0,,9756.213621783296,12515.4970310719,
260,16.840683937072754,0.06600666046142578,15.149986274254836,15.438802899663775,0,0,0,0,0,0,0,0,0,0,0,0,0,0,0,0,0,0,0,0,0,0,0,,9756.213621783296,12515.4970310719,
261,16.909690856933594,0.06900691986083984,14.491300322005555,15.434936227292436,0,0,0,0,0,0,0,0,0,0,0,0,0,0,0,0,0,0,0,0,0,0,0,,9756.213621783296,12515.4970310719,
262,16.97669768333435,0.06700682640075684,14.923852594050105,15.432918986193624,0,0,0,0,0,0,0,0,0,0,0,0,0,0,0,0,0,0,0,0,0,0,0,,9756.213621783296,12515.4970310719,
263,17.04470419883728,0.06800651550292969,14.704473425886972,15.430012567653757,0,0,0,0,0,0,0,0,0,0,0,0,0,0,0,0,0,0,0,0,0,0,0,,9756.213621783296,12515.4970310719,
264,17.11371111869812,0.06900691986083984,14.491300322005555,15.426227436523604,0,0,0,0,0,0,0,0,0,0,0,0,0,0,0,0,0,0,0,0,0,0,0,,9756.213621783296,12515.4970310719,
265,17.181718111038208,0.06800699234008789,14.704370324145813,15.423370252463497,0,0,0,0,0,0,0,0,0,0,0,0,0,0,0,0,0,0,0,0,0,0,0,,9756.213621783296,12515.4970310719,
266,17.250725030899048,0.06900691986083984,14.491300322005555,15.419641755552172,0,0,0,0,0,0,0,0,0,0,0,0,0,0,0,0,0,0,0,0,0,0,0,,9756.213621783296,12515.4970310719,
267,17.317731618881226,0.06700658798217773,14.923905695153106,15.41772363009105,0,0,0,0,0,0,0,0,0,0,0,0,0,0,0,0,0,0,0,0,0,0,0,,9756.213621783296,12515.4970310719,
268,17.38373827934265,0.06600666046142578,15.149986274254836,15.416707022014263,0,0,0,0,0,0,0,0,0,0,0,0,0,0,0,0,0,0,0,0,0,0,0,,9756.213621783296,12515.4970310719,
269,17.45174503326416,0.06800675392150879,14.704421874835665,15.41393135685105,0,0,0,0,0,0,0,0,0,0,0,0,0,0,0,0,0,0,0,0,0,0,0,,9756.213621783296,12515.4970310719,
270,17.52175211906433,0.0700070858001709,14.284268350412592,15.409417857602822,0,0,0,0,0,0,0,0,0,0,0,0,0,0,0,0,0,0,0,0,0,0,0,,9756.213621783296,12515.4970310719,
271,17.59075903892517,0.06900691986083984,14.491300322005555,15.405816167473272,0,0,0,0,0,0,0,0,0,0,0,0,0,0,0,0,0,0,0,0,0,0,0,,9756.213621783296,12515.4970310719,
272,17.65976572036743,0.06900668144226074,14.491350389552059,15.402242833057285,0,0,0,0,0,0,0,0,0,0,0,0,0,0,0,0,0,0,0,0,0,0,0,,9756.213621783296,12515.4970310719,
273,17.725772380828857,0.06600666046142578,15.149986274254836,15.401303488205714,0,0,0,0,0,0,0,0,0,0,0,0,0,0,0,0,0,0,0,0,0,0,0,,9756.213621783296,12515.4970310719,
274,17.79577946662903,0.0700070858001709,14.284268350412592,15.396909166794847,0,0,0,0,0,0,0,0,0,0,0,0,0,0,0,0,0,0,0,0,0,0,0,,9756.213621783296,12515.4970310719,
275,17.863786220550537,0.06800675392150879,14.704421874835665,15.394272894043,0,0,0,0,0,0,0,0,0,0,0,0,0,0,0,0,0,0,0,0,0,0,0,,9756.213621783296,12515.4970310719,
276,17.928792715072632,0.06500649452209473,15.38307837319416,15.394232304775793,0,0,0,0,0,0,0,0,0,0,0,0,0,0,0,0,0,0,0,0,0,0,0,,9756.213621783296,12515.4970310719,
277,17.994799375534058,0.06600666046142578,15.149986274254836,15.393336386768084,0,0,0,0,0,0,0,0,0,0,0,0,0,0,0,0,0,0,0,0,0,0,0,,9756.213621783296,12515.4970310719,
278,18.062806129455566,0.06800675392150879,14.704421874835665,15.390742612614158,0,0,0,0,0,0,0,0,0,0,0,0,0,0,0,0,0,0,0,0,0,0,0,,9756.213621783296,12515.4970310719,
279,18.129812717437744,0.06700658798217773,14.923905695153106,15.389017214262244,0,0,0,0,0,0,0,0,0,0,0,0,0,0,0,0,0,0,0,0,0,0,0,,9756.213621783296,12515.4970310719,
280,18.200819969177246,0.07100725173950195,14.083068637392303,15.383922288895493,0,0,0,0,0,0,0,0,0,0,0,0,0,0,0,0,0,0,0,0,0,0,0,,9756.213621783296,12515.4970310719,
281,18.27182698249817,0.07100701332092285,14.083115923780744,15.378867163593346,0,0,0,0,0,0,0,0,0,0,0,0,0,0,0,0,0,0,0,0,0,0,0,,9756.213621783296,12515.4970310719,
282,18.338833808898926,0.06700682640075684,14.923852594050105,15.37720462154793,0,0,0,0,0,0,0,0,0,0,0,0,0,0,0,0,0,0,0,0,0,0,0,,9756.213621783296,12515.4970310719,
283,18.407840490341187,0.06900668144226074,14.491350389552059,15.373883761568527,0,0,0,0,0,0,0,0,0,0,0,0,0,0,0,0,0,0,0,0,0,0,0,,9756.213621783296,12515.4970310719,
284,18.474847316741943,0.06700682640075684,14.923852594050105,15.372251533718421,0,0,0,0,0,0,0,0,0,0,0,0,0,0,0,0,0,0,0,0,0,0,0,,9756.213621783296,12515.4970310719,
285,18.54085397720337,0.06600666046142578,15.149986274254836,15.371460254765909,0,0,0,0,0,0,0,0,0,0,0,0,0,0,0,0,0,0,0,0,0,0,0,,9756.213621783296,12515.4970310719,
286,18.60986089706421,0.06900691986083984,14.491300322005555,15.368196548160004,0,0,0,0,0,0,0,0,0,0,0,0,0,0,0,0,0,0,0,0,0,0,0,,9756.213621783296,12515.4970310719,
287,18.677867650985718,0.06800675392150879,14.704421874835665,15.36577972190812,0,0,0,0,0,0,0,0,0,0,0,0,0,0,0,0,0,0,0,0,0,0,0,,9756.213621783296,12515.4970310719,
288,18.74787449836731,0.0700068473815918,14.28431699758199,15.361741408343702,0,0,0,0,0,0,0,0,0,0,0,0,0,0,0,0,0,0,0,0,0,0,0,,9756.213621783296,12515.4970310719,
289,18.814881324768066,0.06700682640075684,14.923852594050105,15.360181922569875,0,0,0,0,0,0,0,0,0,0,0,0,0,0,0,0,0,0,0,0,0,0,0,,9756.213621783296,12515.4970310719,
290,18.883888244628906,0.06900691986083984,14.491300322005555,15.35700679029828,0,0,0,0,0,0,0,0,0,0,0,0,0,0,0,0,0,0,0,0,0,0,0,,9756.213621783296,12515.4970310719,
291,18.951894998550415,0.06800675392150879,14.704421874835665,15.354665062372806,0,0,0,0,0,0,0,0,0,0,0,0,0,0,0,0,0,0,0,0,0,0,0,,9756.213621783296,12515.4970310719,
292,19.018901824951172,0.06700682640075684,14.923852594050105,15.353147236762165,0,0,0,0,0,0,0,0,0,0,0,0,0,0,0,0,0,0,0,0,0,0,0,,9756.213621783296,12515.4970310719,
293,19.08490824699402,0.06600642204284668,15.150040996781662,15.352444780348847,0,0,0,0,0,0,0,0,0,0,0,0,0,0,0,0,0,0,0,0,0,0,0,,9756.213621783296,12515.4970310719,
