Index,Time,Difference,Hz,AveHz,0x6103 Pressure,0x6103 Acceleration-X,0x6103 Acceleration-Y,0x6103 Acceleration-Z,0x6103 Magnetic-X,0x6103 Magnetic-Y,0x6103 Magnetic-Z,0x6103 Angular-Vel-X,0x6103 Angular-Vel-Y,0x6103 Angular-Vel-Z,0x6103 Heading,0x6103 Roll,0x6103 Pitch,0x6103 Quaternion-X,0x6103 Quaternion-Y,0x6103 Quaternion-Z,0x6103 Quaternion-W,0x6103 Linear-Acceleration-X,0x6103 Linear-Acceleration-Y,0x6103 Linear-Acceleration-Z,0x6103 Gravity-X,0x6103 Gravity-Y,0x6103 Gravity-Z,0x6103 Range,0x6103 Smoothed Range,0x6103 Velocity,
0,0.0,0.0,0,0,101466.25,81.0,911.0,-399.0,-17.5625,-44.75,13.875,-4.5,0.75,3.75,63.9375,4.8125,-113.0625,0.6641845703125,-0.50433349609375,-0.292236328125,0.4681396484375,0.0,12.0,-15.0,82.0,898.0,-383.0,1008,1022.0,,
1,0.036206722259521484,0.036206722259521484,27.619180571834956,27.619180571834956,101466.75,101.0,924.0,-390.0,-17.5625,-44.375,13.5,2.1875,0.375,1.1875,63.75,4.875,-113.0625,0.663818359375,-0.5045166015625,-0.29180908203125,0.46868896484375,17.0,25.0,-7.0,83.0,898.0,-382.0,994,1008.0,-193.3342640028447,
2,0.07356786727905273,0.03736114501953125,26.765774964263834,27.18578197209025,101466.75,75.0,892.0,-400.0,-17.5625,-45.5,14.375,2.5,1.875,-1.5,63.75,4.875,-113.1875,0.66473388671875,-0.50445556640625,-0.291015625,0.46795654296875,-8.0,-5.0,-15.0,83.0,897.0,-385.0,1004,1006.0,-123.43290696568619,
3,0.1128697395324707,0.03930187225341797,25.4440804639538,26.5793118016096,101466.75,63.0,887.0,-380.0,-18.0,-44.0,13.5,-4.6875,1.4375,-0.375,63.625,4.875,-113.125,0.6646728515625,-0.50408935546875,-0.29095458984375,0.468505859375,-20.0,-10.0,-14.0,83.0,898.0,-384.0,961,983.5,-347.9623587023233,
4,0.15101170539855957,0.03814196586608887,26.21784109164328,26.48801289570864,101466.75,75.0,903.0,-402.0,-18.0,-44.0,13.5,-1.5,-0.25,-0.5625,63.625,4.875,-113.0625,0.66436767578125,-0.50384521484375,-0.2911376953125,0.468994140625,-10.0,2.0,-20.0,84.0,898.0,-383.0,,983.5,-347.9623587023233,
5,0.17505264282226562,0.024040937423706055,41.595715773293,28.56283640959707,101466.75,66.0,899.0,-400.0,-17.1875,-44.375,14.375,2.1875,-1.5625,-0.0625,63.75,4.8125,-113.125,0.66461181640625,-0.504150390625,-0.2913818359375,0.46826171875,-9.0,-1.0,-18.0,83.0,898.0,-384.0,1036,1009.75,371.962590173309,
6,0.21325898170471191,0.03820633888244629,26.173667230372732,28.13480563415553,101466.75,65.0,899.0,-410.0,-18.0,-45.1875,13.5,-4.9375,-1.6875,3.0,63.75,4.875,-113.0625,0.664306640625,-0.5042724609375,-0.2913818359375,0.468505859375,4.0,10.0,4.0,83.0,898.0,-383.0,1004,1006.875,148.3566484429937,
7,0.2513308525085449,0.03807187080383301,26.266111406832202,27.85173380081544,101466.75,106.0,911.0,-372.0,-18.0,-45.1875,13.5,-1.3125,-1.25,1.8125,63.75,4.9375,-113.0,0.66351318359375,-0.504638671875,-0.291748046875,0.46905517578125,21.0,12.0,9.0,84.0,899.0,-382.0,980,993.4375,-102.29711179315699,
8,0.2857809066772461,0.03445005416870117,29.027530554901933,27.99347266762997,101466.75,93.0,918.0,-403.0,-18.0,-44.375,13.5,-1.5,-0.625,-2.875,63.8125,4.875,-112.9375,0.6634521484375,-0.50421142578125,-0.292236328125,0.46923828125,0.0,9.0,-13.0,83.0,899.0,-381.0,975,984.21875,-184.9473295480796,
9,0.32418203353881836,0.038401126861572266,26.040902487179167,27.762180099108786,101466.75,82.0,905.0,-381.0,-17.5625,-44.75,13.875,-3.75,0.9375,-1.9375,63.8125,4.8125,-112.8125,0.66339111328125,-0.50335693359375,-0.29290771484375,0.46990966796875,0.0,-10.0,8.0,82.0,900.0,-379.0,1013,998.609375,94.89876640324155,
10,0.3629450798034668,0.03876304626464844,25.797766077842837,27.55237791187294,101466.75,84.0,894.0,-387.0,-18.0,-45.1875,13.1875,-2.125,0.125,-1.375,63.8125,4.8125,-112.75,0.66363525390625,-0.5025634765625,-0.29290771484375,0.47039794921875,2.0,-6.0,-9.0,82.0,900.0,-378.0,971,984.8046875,-130.61566624973975,
11,0.39762091636657715,0.03467583656311035,28.838525587695354,27.66454063965491,101462.25,50.0,867.0,-369.0,-18.0,-45.1875,13.1875,1.1875,0.0625,1.0625,63.875,4.75,-112.625,0.66326904296875,-0.5020751953125,-0.293701171875,0.47088623046875,-20.0,-24.0,7.0,81.0,901.0,-376.0,971,977.90234375,-164.8345415495919,
12,0.43176889419555664,0.03414797782897949,29.28431091903063,27.79264593008167,101462.25,76.0,885.0,-391.0,-17.1875,-44.375,13.1875,-0.0625,-1.5625,2.875,63.8125,4.8125,-112.6875,0.663330078125,-0.5025634765625,-0.2930908203125,0.47064208984375,-7.0,-10.0,-13.0,82.0,901.0,-377.0,994,985.951171875,35.43492189837322,
13,0.46922802925109863,0.03745913505554199,26.695757884352226,27.705079811085394,101462.25,57.0,882.0,-363.0,-18.0,-44.75,13.1875,-0.25,-2.25,4.1875,63.8125,4.8125,-112.75,0.662841796875,-0.5032958984375,-0.29327392578125,0.470458984375,-25.0,-18.0,14.0,83.0,901.0,-377.0,990,987.9755859375,44.73909478427556,
14,0.5086688995361328,0.03944087028503418,25.354410102341213,27.522814964246745,101462.25,62.0,906.0,-390.0,-18.375,-45.75,13.5,4.25,-3.875,4.3125,63.8125,4.9375,-112.875,0.66259765625,-0.50469970703125,-0.29266357421875,0.46966552734375,-22.0,-7.0,-15.0,84.0,900.0,-379.0,994,990.98779296875,60.5559135838719,
15,0.548973798751831,0.04030489921569824,24.810879557056747,27.323708406675518,101462.25,77.0,930.0,-397.0,-18.375,-45.75,13.5,-0.4375,-4.9375,6.625,63.9375,5.0,-112.9375,0.6614990234375,-0.5068359375,-0.292724609375,0.4688720703125,-8.0,30.0,-16.0,86.0,899.0,-381.0,985,987.993896484375,-6.862645748125928,
16,0.590688943862915,0.041715145111083984,23.97210886686556,27.087014521323464,101462.25,67.0,911.0,-395.0,-17.5625,-44.75,13.1875,-1.0,-6.0625,5.125,64.0,5.0625,-112.9375,0.660400390625,-0.50836181640625,-0.2930908203125,0.46856689453125,-3.0,11.0,-11.0,87.0,899.0,-381.0,990,988.9969482421875,8.591310094628096,
17,0.6279697418212891,0.03728079795837402,26.823460193007477,27.071368041866496,101462.25,76.0,901.0,-393.0,-17.1875,-44.75,14.6875,0.3125,-8.0625,3.1875,64.25,5.125,-113.0,0.65924072265625,-0.51007080078125,-0.29388427734375,0.46783447265625,-5.0,8.0,-7.0,88.0,898.0,-381.0,985,986.9984741210938,-22.507340469642855,
18,0.6679718494415283,0.04000210762023926,24.998682806754044,26.947243383159442,101462.25,91.0,913.0,-390.0,-18.0,-45.5,13.875,-3.5625,-9.875,4.8125,64.6875,5.0625,-112.9375,0.65728759765625,-0.51226806640625,-0.2958984375,0.46685791015625,4.0,14.0,-9.0,87.0,899.0,-381.0,952,969.4992370605469,-229.98260855322457,
19,0.7054316997528076,0.0374598503112793,26.695248157435813,26.933861926899294,101462.25,106.0,912.0,-380.0,-18.0,-45.5,13.875,-3.75,-10.4375,1.4375,65.0625,5.0625,-112.875,0.65570068359375,-0.513671875,-0.2977294921875,0.4664306640625,19.0,13.0,0.0,87.0,899.0,-380.0,985,977.2496185302734,-11.542125952040948,
20,0.7412548065185547,0.03582310676574707,27.91494346202738,26.981275297132754,101462.25,85.0,901.0,-389.0,-17.5625,-45.0625,13.5,-1.1875,-10.625,-2.75,65.6875,4.8125,-112.8125,0.65521240234375,-0.513916015625,-0.30035400390625,0.4652099609375,3.0,0.0,-10.0,82.0,900.0,-379.0,947,962.1248092651367,-216.87516073114017,
21,0.7785279750823975,0.03727316856384277,26.82895065084594,26.97398253129878,101463.5,66.0,900.0,-398.0,-18.375,-44.375,13.5,-2.125,-11.6875,-1.5625,66.6875,4.5,-112.75,0.65380859375,-0.5152587890625,-0.3046875,0.4627685546875,0.0,3.0,-7.0,76.0,901.0,-378.0,990,976.0624046325684,78.52794878657116,
22,0.8249306678771973,0.046402692794799805,21.550473469765244,26.668907893329788,101463.5,98.0,916.0,-376.0,-18.0,-44.375,14.6875,-4.5,-10.375,-0.625,67.25,4.375,-112.625,0.6522216796875,-0.5164794921875,-0.30731201171875,0.46197509765625,23.0,14.0,0.0,74.0,902.0,-376.0,,976.0624046325684,78.52794878657116,
23,0.8555610179901123,0.03063035011291504,32.64735781059055,26.882945244550413,101463.5,98.0,912.0,-363.0,-18.375,-43.6875,14.6875,-5.0,-10.375,-0.875,68.0,4.1875,-112.4375,0.64959716796875,-0.518310546875,-0.31134033203125,0.46099853515625,26.0,9.0,9.0,72.0,903.0,-373.0,999,987.5312023162842,226.47694521205682,
24,0.8959639072418213,0.040402889251708984,24.75070517284111,26.786793313898954,101463.5,136.0,915.0,-381.0,-18.375,-43.6875,14.6875,-4.875,-5.6875,1.25,68.1875,4.1875,-112.375,0.647705078125,-0.5194091796875,-0.31292724609375,0.46124267578125,70.0,17.0,14.0,72.0,904.0,-371.0,915,951.2656011581421,-335.5611284844815,
25,0.9356958866119385,0.03973197937011719,25.168642888003458,26.71808261391691,101463.5,98.0,875.0,-320.0,-18.0,-45.1875,14.375,-8.0625,-1.5625,-0.9375,68.4375,4.125,-112.0,0.64617919921875,-0.51885986328125,-0.31500244140625,0.462646484375,22.0,-12.0,36.0,71.0,906.0,-366.0,961,956.132800579071,-106.53016219721172,
26,0.9744009971618652,0.03870511054992676,25.83638144399751,26.68305972154187,101463.5,53.0,858.0,-344.0,-17.5625,-45.1875,14.375,3.3125,-0.0625,-1.4375,68.5,4.125,-111.9375,0.64630126953125,-0.51861572265625,-0.31512451171875,0.46258544921875,-17.0,-48.0,22.0,71.0,906.0,-366.0,933,944.5664002895355,-202.68204600580736,
27,1.0110979080200195,0.0366969108581543,27.2502501331878,26.703645399556503,101463.5,61.0,874.0,-407.0,-17.5625,-45.0625,13.5,4.4375,-2.4375,4.375,68.4375,4.1875,-112.25,0.64691162109375,-0.51995849609375,-0.313720703125,0.461181640625,-11.0,-30.0,-36.0,72.0,905.0,-370.0,971,957.7832001447678,78.73952800477574,
28,1.0512418746948242,0.04014396667480469,24.91034351689077,26.635164250975453,101463.5,69.0,858.0,-362.0,-17.5625,-45.0625,13.5,0.9375,-3.125,7.625,68.3125,4.375,-112.25,0.64544677734375,-0.52178955078125,-0.31329345703125,0.46148681640625,-6.0,-45.0,7.0,75.0,904.0,-370.0,952,954.8916000723839,3.354388444113532,
29,1.090479850769043,0.03923797607421875,25.485514291269688,26.593797198130922,101463.5,50.0,814.0,-339.0,-18.0,-45.0625,13.5,3.5625,-5.875,2.625,68.25,4.5625,-112.4375,0.64495849609375,-0.52386474609375,-0.3123779296875,0.46044921875,-28.0,-88.0,34.0,78.0,903.0,-373.0,910,932.4458000361919,-284.3441845786189,
30,1.1299247741699219,0.039444923400878906,25.351804840308503,26.550440069816982,101463.5,-5.0,828.0,-355.0,-18.6875,-44.75,13.1875,13.0,-10.3125,7.5625,68.4375,4.5625,-112.8125,0.6448974609375,-0.5267333984375,-0.31158447265625,0.45782470703125,-83.0,-72.0,24.0,78.0,900.0,-379.0,938,935.222900018096,-106.96984390768185,
31,1.164529800415039,0.03460502624511719,28.897536239872128,26.620186094809753,101462.25,83.0,921.0,-427.0,-18.6875,-45.5,15.0625,17.375,-12.5625,10.9375,68.5625,4.75,-113.3125,0.6444091796875,-0.5313720703125,-0.30987548828125,0.4542236328125,1.0,24.0,-39.0,81.0,897.0,-387.0,929,932.111450009048,-98.44154165134822,
32,1.1993498802185059,0.0348200798034668,28.719061117730032,26.681121604122744,101462.25,138.0,981.0,-505.0,-18.6875,-45.5,15.0625,18.25,-14.625,4.25,69.125,4.75,-114.0,0.64410400390625,-0.53680419921875,-0.309326171875,0.4486083984375,57.0,89.0,-106.0,81.0,892.0,-398.0,905,918.555725004524,-243.87461827570695,
33,1.2393107414245605,0.03996086120605469,25.024485704739632,26.627704333513016,101462.25,151.0,948.0,-475.0,-18.0,-45.0625,15.5,-4.6875,-7.625,4.125,69.625,4.625,-114.25,0.6435546875,-0.5394287109375,-0.31024169921875,0.4456787109375,71.0,58.0,-72.0,79.0,890.0,-402.0,938,928.277862502262,-0.29156372202457703,
34,1.2777819633483887,0.038471221923828125,25.993455627169062,26.60860849131415,101462.25,177.0,895.0,-364.0,-18.0,-44.25,15.875,-3.0,2.125,-1.875,69.6875,4.625,-114.0625,0.642333984375,-0.5390625,-0.31146240234375,0.44696044921875,97.0,2.0,34.0,80.0,892.0,-398.0,938,933.138931251131,63.032205551160025,
35,1.3164067268371582,0.03862476348876953,25.890126169724205,26.587527461282534,101462.25,80.0,828.0,-311.0,-18.0,-44.0,15.875,7.1875,4.375,-17.875,69.8125,4.375,-114.1875,0.6455078125,-0.53662109375,-0.3111572265625,0.44561767578125,5.0,-62.0,90.0,75.0,891.0,-401.0,924,928.5694656255655,-27.635918011474242,
36,1.3516716957092285,0.03526496887207031,28.35675266374601,26.633686356146292,101462.25,51.0,834.0,-354.0,-18.0,-44.0,15.875,21.9375,7.3125,-15.75,70.0,4.0,-114.6875,0.65020751953125,-0.53448486328125,-0.309814453125,0.4422607421875,-16.0,-54.0,54.0,68.0,888.0,-408.0,915,921.7847328127827,-110.01445413657822,
37,1.3913359642028809,0.039664268493652344,25.211608280637638,26.593145690155364,101462.25,79.0,907.0,-395.0,-18.0,-44.375,15.5,17.4375,7.8125,-12.4375,69.75,3.6875,-115.375,0.6563720703125,-0.5322265625,-0.30584716796875,0.4385986328125,15.0,23.0,24.0,64.0,883.0,-419.0,938,929.8923664063914,47.19601405421044,
38,1.430783987045288,0.03944802284240723,25.349812942335472,26.558865869385215,101462.25,3.0,899.0,-442.0,-17.1875,-44.0,15.875,18.75,5.6875,-20.3125,69.875,3.1875,-116.1875,0.66375732421875,-0.52899169921875,-0.30303955078125,0.433349609375,-51.0,21.0,-10.0,55.0,878.0,-432.0,915,922.4461832031957,-70.7816686405803,
39,1.4693987369537354,0.038614749908447266,25.896839999506057,26.541468302097726,101462.25,-55.0,867.0,-480.0,-18.0,-43.25,16.6875,16.6875,7.25,-14.4375,70.0625,2.6875,-116.875,0.67034912109375,-0.52581787109375,-0.30078125,0.4285888671875,-101.0,-6.0,-37.0,46.0,873.0,-442.0,915,918.7230916015978,-83.59898807533222,
40,1.5080740451812744,0.03867530822753906,25.856290378261082,26.523896573786534,101462.25,17.0,884.0,-473.0,-16.5,-43.6875,17.875,6.25,13.4375,-0.9375,69.625,2.6875,-117.3125,0.67401123046875,-0.5244140625,-0.297119140625,0.42706298828125,-28.0,14.0,-24.0,46.0,870.0,-449.0,929,923.8615458007989,24.631187897302937,
41,1.5474989414215088,0.039424896240234375,25.364683115626512,26.49436384256136,101465.25,123.0,909.0,-402.0,-16.5,-43.6875,17.875,1.4375,22.125,1.125,68.25,3.125,-117.25,0.67523193359375,-0.52215576171875,-0.29241943359375,0.43109130859375,69.0,38.0,46.0,54.0,870.0,-448.0,915,919.4307729003995,-43.87698133931739,
42,1.5863370895385742,0.03883814811706543,25.747880588585566,26.476087760273415,101465.25,145.0,943.0,-504.0,-16.0625,-44.0,17.5,26.9375,19.875,-19.0,67.25,3.125,-117.8125,0.681884765625,-0.5179443359375,-0.2860107421875,0.4300537109375,91.0,77.0,-46.0,54.0,865.0,-457.0,938,928.7153864501997,97.59106982605175,
43,1.6218838691711426,0.03554677963256836,28.13194360604719,26.51237910268815,101465.25,105.0,891.0,-499.0,-16.875,-44.0,17.875,31.875,19.0625,-31.5,67.0,2.6875,-118.6875,0.69036865234375,-0.513427734375,-0.281494140625,0.4249267578125,58.0,32.0,-28.0,46.0,858.0,-471.0,919,923.8576932250999,-19.53264101896758,
44,1.6578528881072998,0.03596901893615723,27.801703509760383,26.54035247375473,101465.25,28.0,810.0,-483.0,-16.0625,-44.0,17.875,17.9375,35.375,-27.3125,66.25,2.1875,-119.625,0.7020263671875,-0.50439453125,-0.27471923828125,0.4210205078125,-9.0,-40.0,1.0,38.0,851.0,-484.0,905,914.4288466125499,-140.83531949004467,
45,1.6930670738220215,0.03521418571472168,28.397646564973357,26.578982425317953,101465.25,50.0,863.0,-534.0,-16.0625,-44.0,17.875,13.625,44.6875,-18.5625,64.6875,2.3125,-120.0,0.70904541015625,-0.4971923828125,-0.2677001953125,0.42236328125,11.0,14.0,-44.0,39.0,848.0,-490.0,924,919.214423306275,-2.4681019660337,
46,1.7301838397979736,0.03711676597595215,26.942002453767046,26.586770111880845,101465.25,93.0,882.0,-540.0,-15.375,-44.0,19.0,18.4375,36.375,-26.3125,62.875,2.25,-120.5,0.71856689453125,-0.487060546875,-0.259033203125,0.42340087890625,53.0,38.0,-43.0,39.0,844.0,-497.0,938,928.6072116531375,125.29621236142538,
47,1.76572585105896,0.03554201126098633,28.135717831412588,26.617948631047486,101465.25,98.0,862.0,-554.0,-15.6875,-44.0,17.875,21.375,38.125,-37.0625,61.75,2.0,-121.0625,0.72802734375,-0.4774169921875,-0.252685546875,0.422119140625,58.0,-5.0,-46.0,32.0,837.0,-508.0,943,935.8036058265687,163.88596411435444,
48,1.8080248832702637,0.04229903221130371,23.641202829523998,26.548307185452025,101465.25,1.0,747.0,-545.0,-15.6875,-44.0,17.875,18.4375,46.3125,-44.5625,60.3125,1.4375,-121.75,0.74139404296875,-0.4620361328125,-0.24462890625,0.42071533203125,-24.0,-86.0,-29.0,23.0,832.0,-518.0,924,929.9018029132844,12.180122190762177,
49,1.8477818965911865,0.03975701332092285,25.152794852266528,26.51828123784299,101465.25,127.0,883.0,-593.0,-14.5625,-43.6875,19.0,20.0625,46.1875,-20.625,58.125,1.3125,-122.75,0.75506591796875,-0.44775390625,-0.23284912109375,0.41851806640625,158.0,76.0,-77.0,22.0,824.0,-530.0,933,931.4509014566422,25.572140028892736,
50,1.8857238292694092,0.037941932678222656,26.356063843156967,26.51501732327985,101465.25,265.0,912.0,-682.0,-13.1875,-44.0,18.6875,11.375,68.1875,-42.8125,54.9375,1.5,-123.4375,0.76776123046875,-0.43133544921875,-0.21875,0.42022705078125,247.0,81.0,-171.0,26.0,817.0,-540.0,985,958.2254507283211,365.62193500250675,
51,1.9248929023742676,0.0391690731048584,25.53034628424647,26.494980545200114,101468.25,291.0,847.0,-720.0,-13.1875,-42.875,19.0625,15.3125,75.5,-55.3125,53.25,1.4375,-123.6875,0.7752685546875,-0.419921875,-0.21160888671875,0.42169189453125,266.0,31.0,-176.0,25.0,815.0,-544.0,975,966.6127253641605,289.87598041828176,
52,1.9593238830566406,0.03443098068237305,29.04361073026161,26.5397673399854,101468.25,205.0,686.0,-507.0,-13.1875,-42.875,19.0625,-18.875,71.8125,-57.125,50.1875,1.1875,-123.625,0.78839111328125,-0.394287109375,-0.20025634765625,0.4276123046875,184.0,-129.0,35.0,20.0,816.0,-543.0,966,966.3063626820802,140.48905096883206,
53,1.9984629154205322,0.0391390323638916,25.54994182540311,26.5203820351339,101468.25,299.0,712.0,-510.0,-13.1875,-44.375,19.0625,-41.875,113.5,-56.75,43.9375,1.6875,-121.8125,0.79852294921875,-0.3553466796875,-0.18194580078125,0.4505615234375,207.0,-121.0,44.0,29.0,832.0,-517.0,1008,987.1531813410402,336.5620274749932,
54,2.0359458923339844,0.03748297691345215,26.67877747034316,26.523298189469582,101468.25,166.0,768.0,-382.0,-12.375,-45.75,16.6875,7.8125,122.375,-70.4375,37.875,2.0625,-120.9375,0.8101806640625,-0.317138671875,-0.16021728515625,0.4661865234375,77.0,-115.0,106.0,35.0,840.0,-504.0,980,983.5765906705201,120.57148043684114,
55,2.0725529193878174,0.03660702705383301,27.31715958603891,26.537319981313523,101468.25,16.0,629.0,-519.0,-12.0,-47.6875,16.25,24.8125,119.0625,-61.0625,35.0,2.125,-121.25,0.81866455078125,-0.299072265625,-0.1475830078125,0.467529296875,-20.0,-207.0,-10.0,37.0,837.0,-509.0,1018,1000.78829533526,295.3731817556564,
56,2.107994794845581,0.03544187545776367,28.215211161489094,26.565530492262067,101468.25,217.0,872.0,-548.0,-12.0,-47.6875,16.25,13.375,82.4375,-30.5625,29.8125,2.875,-121.75,0.82904052734375,-0.2747802734375,-0.1253662109375,0.47064208984375,167.0,39.0,-33.0,49.0,832.0,-515.0,966,983.39414766763,-97.70318383032387,
57,2.1434779167175293,0.03548312187194824,28.182413137401145,26.59229635884863,101468.25,204.0,899.0,-501.0,-10.1875,-45.0625,13.5,12.4375,101.6875,-49.0625,24.9375,3.375,-121.9375,0.8382568359375,-0.24847412109375,-0.10504150390625,0.47393798828125,145.0,68.0,5.0,58.0,830.0,-518.0,980,981.697073833815,-72.76540986978588,
58,2.180879831314087,0.03740191459655762,26.73659920318725,26.594771141082155,101468.25,-80.0,727.0,-537.0,-10.5,-47.0,14.6875,-23.375,100.0625,-34.0,19.1875,4.1875,-121.375,0.8436279296875,-0.2191162109375,-0.081787109375,0.48333740234375,-240.0,-154.0,54.0,72.0,834.0,-509.0,980,980.8485369169075,-47.726200663125034,
59,2.217417001724243,0.03653717041015625,27.369388181248695,26.607534782191234,101468.25,-653.0,584.0,-415.0,-10.1875,-47.0,13.5,43.8125,80.1875,-28.0,15.4375,4.75,-121.5625,0.8486328125,-0.20166015625,-0.06591796875,0.484619140625,-735.0,-248.0,96.0,81.0,832.0,-511.0,1074,1027.4242684584538,613.5115378615415,
60,2.2546586990356445,0.03724169731140137,26.851622568068475,26.611566542493996,101468.25,-306.0,761.0,-634.0,-10.1875,-47.0,13.5,100.1875,54.625,14.4375,10.75,5.875,-124.875,0.86468505859375,-0.1922607421875,-0.04351806640625,0.46197509765625,-407.0,-38.0,-76.0,100.0,799.0,-558.0,1135,1081.2121342292269,1028.9015041401353,
61,2.288456916809082,0.0337982177734375,29.587358916478554,26.655516016904336,101461.0,169.0,987.0,-692.0,-9.75,-47.0,12.6875,23.0,85.5625,9.1875,3.9375,8.0625,-126.1875,0.870849609375,-0.1846923828125,-0.01568603515625,0.45526123046875,-77.0,129.0,-30.0,138.0,783.0,-573.0,1107,1094.1060671146133,705.199462132525,
62,2.3227667808532715,0.03430986404418945,29.14613706169305,26.692305276220722,101461.0,97.0,878.0,-357.0,-10.5,-45.0625,16.25,-20.0,90.1875,6.625,0.625,9.1875,-125.625,0.86932373046875,-0.1787109375,-0.002685546875,0.46075439453125,-168.0,91.0,206.0,156.0,786.0,-564.0,1158,1126.0530335573067,818.1650623882867,
63,2.358205795288086,0.03543901443481445,28.21748900041711,26.715225671092764,101461.0,370.0,1081.0,-622.0,-10.5,-45.0625,16.25,63.3125,71.3125,-32.875,354.5625,10.6875,-126.625,0.87542724609375,-0.16363525390625,0.0213623046875,0.45428466796875,188.0,308.0,-47.0,182.0,773.0,-575.0,1219,1172.5265167786533,1064.7650319988527,
64,2.3922088146209717,0.03400301933288574,29.409153058147933,26.753517338803192,101461.0,334.0,936.0,-547.0,-11.25,-45.5,15.0625,17.9375,76.1875,-59.8125,350.8125,10.625,-127.0625,0.88214111328125,-0.13433837890625,0.0361328125,0.45001220703125,153.0,167.0,33.0,181.0,769.0,-580.0,1233,1202.7632583893267,977.0009970034076,
65,2.4319398403167725,0.03973102569580078,25.169247017594394,26.727634838012037,101461.0,414.0,860.0,-501.0,-11.25,-46.1875,16.6875,-19.4375,98.4375,-94.6875,347.375,10.5,-126.625,0.88470458984375,-0.104248046875,0.04986572265625,0.45159912109375,240.0,81.0,68.0,174.0,778.0,-570.0,1233,1217.8816291946632,678.7595031532554,
66,2.4706459045410156,0.038706064224243164,25.83574486433213,26.713662155589695,101461.0,198.0,679.0,-569.0,-10.1875,-45.0625,16.25,7.9375,92.625,-116.5,345.0,9.0625,-125.1875,0.8841552734375,-0.05511474609375,0.06048583984375,0.4599609375,43.0,-111.0,-11.0,154.0,791.0,-558.0,1209,1213.4408145973316,282.01387511339703,
67,2.504936933517456,0.03429102897644043,29.162146189519355,26.74718037947485,101461.0,89.0,555.0,-597.0,-10.1875,-45.0625,16.25,-7.5625,120.6875,-152.75,340.9375,7.3125,-123.1875,0.8782958984375,0.01171875,0.0791015625,0.47137451171875,-36.0,-258.0,-65.0,125.0,813.0,-532.0,1223,1218.2204072986658,210.69852809803228,
68,2.541686773300171,0.036749839782714844,27.211002984299988,26.75388671583147,101461.0,322.0,912.0,-573.0,-7.5625,-47.25,15.5,-137.375,106.25,-29.75,337.5625,7.4375,-121.3125,0.8631591796875,0.0419921875,0.10150146484375,0.49285888671875,190.0,69.0,-89.0,131.0,842.0,-484.0,1209,1213.610203649333,42.62513141890354,
69,2.5787298679351807,0.037043094635009766,26.99558473321748,26.757358674117004,101461.0,344.0,1042.0,350.0,-3.0625,-48.0625,13.1875,61.8125,-217.625,-17.625,341.75,5.875,-118.6875,0.8587646484375,0.0352783203125,0.080810546875,0.50469970703125,242.0,186.0,818.0,101.0,855.0,-468.0,1299,1256.3051018246665,597.5994363936056,
70,2.6166279315948486,0.03789806365966797,26.38657238481089,26.751988372047464,101461.0,112.0,915.0,-144.0,-2.6875,-48.75,10.375,68.375,44.375,-66.125,342.625,4.625,-119.4375,0.86187744140625,0.050048828125,0.07598876953125,0.49896240234375,33.0,64.0,336.0,79.0,850.0,-481.0,1313,1284.6525509123333,672.7957268350328,
71,2.650977849960327,0.034349918365478516,29.11215070033455,26.782570062236672,101458.0,170.0,1048.0,-852.0,-2.6875,-48.75,10.375,10.3125,64.25,-13.4375,339.375,4.6875,-120.5,0.8648681640625,0.07281494140625,0.088623046875,0.48870849609375,90.0,207.0,-355.0,80.0,841.0,-496.0,1369,1326.8262754561665,950.2817756747523,
72,2.6868317127227783,0.03585386276245117,27.89099759279701,26.79736124114626,101458.0,29.0,964.0,-282.0,-0.875,-48.0625,12.0,4.75,-43.3125,-21.1875,341.0625,4.0,-121.0625,0.86724853515625,0.07464599609375,0.08056640625,0.48565673828125,-23.0,236.0,252.0,65.0,837.0,-505.0,1382,1354.4131377280833,859.8534424468024,
73,2.727097749710083,0.04026603698730469,24.834825446449717,26.768384084421108,101458.0,-487.0,547.0,-1144.0,0.1875,-48.0625,13.0625,89.5,50.5625,-57.0,337.625,3.5625,-121.75,0.86712646484375,0.1053466796875,0.09423828125,0.47760009765625,-613.0,-186.0,-786.0,61.0,831.0,-515.0,1382,1368.2065688640416,601.2054485079766,
74,2.7658498287200928,0.038752079010009766,25.805067122765138,26.754887135084907,101458.0,-114.0,898.0,-1173.0,1.6875,-47.6875,14.25,-24.5625,-6.5625,20.1875,337.125,3.625,-122.25,0.8687744140625,0.107666015625,0.095703125,0.4737548828125,-177.0,71.0,-650.0,63.0,827.0,-522.0,1363,1365.6032844320207,267.0137595000135,
75,2.8048808574676514,0.039031028747558594,25.62064163021966,26.739103659366386,101458.0,285.0,1015.0,13.0,1.6875,-47.6875,14.25,-152.0625,-13.0625,23.0,337.875,4.3125,-117.3125,0.8489990234375,0.09130859375,0.09979248046875,0.51080322265625,210.0,147.0,462.0,74.0,868.0,-449.0,1480,1422.8016422160104,866.2361930603487,
76,2.842078924179077,0.03719806671142578,26.883117549032175,26.74098856067211,101458.0,-136.0,641.0,-177.0,1.0625,-47.6875,13.0,50.3125,27.625,-71.6875,338.4375,3.5625,-115.8125,0.84124755859375,0.09979248046875,0.099365234375,0.52197265625,-198.0,-238.0,249.0,61.0,880.0,-426.0,1480,1451.4008211080052,817.5356405098227,
77,2.880783796310425,0.038704872131347656,25.83654059381545,26.72883681816666,101458.0,-432.0,601.0,-933.0,1.375,-49.1875,7.875,-8.0625,-10.0,-9.75,338.375,2.6875,-117.0,0.84490966796875,0.11474609375,0.0977783203125,0.51324462890625,-479.0,-270.0,-487.0,46.0,872.0,-445.0,1518,1484.7004105540027,838.9409174943631,
78,2.9210729598999023,0.04028916358947754,24.820569873065658,26.702516873345353,101458.0,67.0,658.0,-541.0,3.5625,-48.5,9.875,-91.125,-29.6875,47.6875,339.1875,3.125,-114.9375,0.83685302734375,0.10137939453125,0.09698486328125,0.52911376953125,13.0,-229.0,-128.0,54.0,887.0,-413.0,1532,1508.3502052770014,712.9711499501052,
79,2.963958740234375,0.042885780334472656,23.317752229313527,26.65354241528783,101458.0,292.0,1422.0,-141.0,3.1875,-48.5,7.5,-62.375,-1.3125,21.0,338.6875,4.0625,-111.75,0.82269287109375,0.089599609375,0.10382080078125,0.5517578125,-102.0,-259.0,108.0,70.0,908.0,-362.0,1612,1560.1751026385007,960.7056329675754,
80,3.0016298294067383,0.03767108917236328,26.545555808713704,26.652187160537288,101458.0,5.0,843.0,-210.0,1.25,-50.375,4.6875,-78.6875,47.8125,-25.8125,337.625,3.6875,-107.6875,0.8009033203125,0.10247802734375,0.1142578125,0.5787353515625,-57.0,-88.0,88.0,63.0,932.0,-298.0,1644,1602.0875513192505,1036.6474392511338,
81,3.046609878540039,0.04498004913330078,22.232078872044948,26.58692882556262,101443.25,-36.0,762.0,-362.0,1.25,-50.375,4.6875,-13.5625,5.875,0.0,337.125,3.4375,-106.0625,0.79150390625,0.10906982421875,0.11920166015625,0.5894775390625,-95.0,-177.0,165.0,58.0,939.0,-273.0,1640,1621.0437756596252,729.041856951262,
82,3.082221746444702,0.035611867904663086,28.080526488447916,26.604185793765748,101443.25,35.0,689.0,-337.0,2.5,-50.75,2.25,19.6875,-17.4375,-6.0,337.875,3.1875,-106.75,0.7955322265625,0.10699462890625,0.11431884765625,0.5853271484375,-20.0,-247.0,-54.0,55.0,937.0,-283.0,1658,1639.5218878298126,623.9584876013604,
83,3.116764783859253,0.03454303741455078,28.949393997956985,26.630177686115733,101443.25,63.0,867.0,-298.0,2.5,-49.1875,1.875,10.6875,16.8125,62.3125,336.75,4.5625,-107.8125,0.8013916015625,0.098388671875,0.11444091796875,0.57879638671875,-13.0,-63.0,197.0,68.0,931.0,-297.0,1640,1639.7609439149064,315.4395081981751,
84,3.1511638164520264,0.03439903259277344,29.070584973662324,26.656817891041186,101443.25,42.0,865.0,-137.0,2.5,-49.1875,1.875,8.0625,5.3125,55.875,334.5625,6.4375,-108.125,0.80487060546875,0.08343505859375,0.12933349609375,0.57318115234375,-67.0,-60.0,165.0,110.0,925.0,-303.0,1715,1677.3804719574532,704.5305974140522,
85,3.1862728595733643,0.03510904312133789,28.482690244333075,26.676936893402573,101443.25,252.0,1008.0,-317.0,1.0625,-50.6875,1.5625,24.5625,13.4375,57.875,332.375,8.0625,-108.6875,0.8082275390625,0.07470703125,0.139404296875,0.56719970703125,114.0,89.0,-6.0,137.0,919.0,-311.0,1790,1733.6902359787266,1154.1920818817366,
86,3.2196128368377686,0.0333399772644043,29.99402165362777,26.711286219267055,101443.25,-158.0,868.0,-330.0,-1.875,-49.5625,3.875,25.5,-11.125,24.375,331.3125,9.0,-109.75,0.81390380859375,0.06756591796875,0.142822265625,0.55914306640625,-312.0,-43.0,-2.0,153.0,911.0,-327.0,1766,1749.8451179893632,819.370981360286,
87,3.2582929134368896,0.038680076599121094,25.85310288715205,26.701098492778314,101443.25,265.0,1025.0,-197.0,-2.5625,-49.875,3.5,-16.8125,52.4375,26.9375,328.625,10.75,-109.125,0.8109130859375,0.06103515625,0.1572265625,0.560302734375,82.0,115.0,118.0,182.0,909.0,-316.0,1799,1774.4225589946816,727.3870461868462,
88,3.2976958751678467,0.03940296173095703,25.37880291405475,26.685298866597563,101443.25,139.0,1044.0,-270.0,-2.5625,-49.875,3.5,-7.6875,0.9375,2.6875,327.25,11.1875,-109.25,0.81097412109375,0.06378173828125,0.1636962890625,0.55804443359375,-51.0,136.0,46.0,190.0,908.0,-317.0,1878,1826.211279497341,1020.8613884974517,
89,3.339343786239624,0.041647911071777344,24.010808087747016,26.65194292565526,101443.25,75.0,1055.0,-271.0,-3.375,-48.75,2.25,-24.0625,-5.4375,-14.9375,327.3125,11.1875,-108.5,0.80731201171875,0.06390380859375,0.1649169921875,0.56298828125,-114.0,143.0,34.0,190.0,912.0,-305.0,1920,1873.1056397486705,1073.4164364448986,
90,3.3766729831695557,0.03732919692993164,26.788682378488854,26.653454583428566,101443.25,-24.0,931.0,-611.0,-4.5625,-49.5625,2.75,34.6875,-54.625,1.0,329.25,10.4375,-109.5625,0.81298828125,0.06097412109375,0.15350341796875,0.558349609375,-202.0,22.0,-288.0,177.0,908.0,-322.0,1977,1925.0528198743352,1232.5064726447404,
91,3.4168057441711426,0.040132761001586914,24.9172988611588,26.633062226390926,101447.5,7.0,1086.0,-257.0,-4.5625,-49.1875,2.25,13.0625,-72.375,17.625,332.3125,10.0625,-110.8125,0.82049560546875,0.04327392578125,0.1361083984375,0.55352783203125,-208.0,105.0,56.0,172.0,902.0,-343.0,1958,1941.5264099371675,821.491919778274,
92,3.4517760276794434,0.03497028350830078,28.595707545883442,26.65294597976847,101447.5,184.0,1033.0,-541.0,-4.5625,-49.1875,2.25,35.4375,51.75,23.4375,330.125,11.0,-111.6875,0.82452392578125,0.04400634765625,0.14532470703125,0.54510498046875,-3.0,139.0,-185.0,188.0,894.0,-356.0,1967,1954.2632049685838,592.8547927842571,
93,3.4885268211364746,0.03675079345703125,27.21029686526884,26.658817537685703,101447.5,223.0,875.0,-800.0,-5.0,-48.75,4.25,7.3125,11.9375,5.875,327.1875,12.0625,-112.75,0.82891845703125,0.0477294921875,0.15716552734375,0.53472900390625,17.0,-8.0,-429.0,205.0,884.0,-371.0,2024,1989.1316024842918,770.8171202014373,
94,3.527503728866577,0.03897690773010254,25.656216930407815,26.64773937183141,101447.5,-43.0,868.0,-369.0,-5.6875,-49.875,5.875,-37.5,-30.75,35.5625,327.875,12.5625,-111.25,0.822021484375,0.0364990234375,0.15692138671875,0.546142578125,-257.0,-23.0,-22.0,213.0,891.0,-347.0,2080,2034.5658012421459,968.243389796104,
95,3.5678017139434814,0.0402979850769043,24.815136491107666,26.627040294511424,101447.5,-139.0,812.0,-366.0,-6.875,-49.1875,5.5,-14.3125,-58.0,23.75,328.9375,12.875,-111.0625,0.82147216796875,0.024169921875,0.15240478515625,0.54901123046875,-359.0,-78.0,-22.0,219.0,891.0,-343.0,2089,2061.782900621073,821.8197128881131,
96,3.6055808067321777,0.03777909278869629,26.469666849681616,26.625391343539754,101447.5,231.0,814.0,-362.0,-6.875,-49.1875,5.5,11.375,-134.4375,81.5625,331.5,14.3125,-112.6875,0.82855224609375,-0.018310546875,0.13763427734375,0.54241943359375,-12.0,-61.0,4.0,243.0,876.0,-366.0,2127,2094.3914503105366,842.4785798097494,
97,3.640530824661255,0.03495001792907715,28.612288612534194,26.64446606052997,101447.5,282.0,737.0,-495.0,-8.25,-48.75,3.0625,-13.4375,-24.1875,-40.5625,335.875,13.625,-113.3125,0.83111572265625,-0.039794921875,0.1158447265625,0.54248046875,19.0,-252.0,-38.0,231.0,875.0,-377.0,2164,2129.1957251552685,919.1542683085916,
98,3.675823926925659,0.0352931022644043,28.334148483415525,26.660689398679672,101447.5,-1.0,844.0,-460.0,-11.1875,-47.6875,5.875,-15.3125,-2.9375,-51.8125,337.5625,12.0625,-111.9375,0.82586669921875,-0.02593994140625,0.109375,0.55255126953125,-373.0,5.0,-135.0,205.0,889.0,-358.0,2174,2151.5978625776343,776.949878189891,
99,3.712934970855713,0.03711104393005371,26.94615656419646,26.663542662904128,101447.5,-140.0,728.0,-290.0,-9.375,-49.5625,4.25,-34.3125,12.6875,-33.125,339.25,10.875,-111.25,0.8232421875,-0.0194091796875,0.1019287109375,0.55810546875,-326.0,-168.0,59.0,185.0,897.0,-349.0,2216,2183.798931288817,822.3224586079363,
100,3.751612901687622,0.03867793083190918,25.854537160891837,26.655202074557344,101447.5,42.0,849.0,-20.0,-9.375,-49.5625,4.25,-17.375,-19.5,6.875,341.3125,9.8125,-108.75,0.81134033203125,-0.0147705078125,0.09478759765625,0.57666015625,-124.0,-65.0,290.0,167.0,914.0,-310.0,2263,2223.3994656444083,923.0879728478715,
101,3.792588710784912,0.04097580909729004,24.40464317923952,26.630886632338548,101450.0,197.0,807.0,-564.0,-6.75,-50.25,2.75,-12.75,4.5,29.0,335.4375,12.0,-110.8125,0.82086181640625,-0.00860595703125,0.12139892578125,0.55804443359375,33.0,-226.0,54.0,204.0,896.0,-340.0,2272,2247.699732822204,758.0636612410822,
102,3.829077959060669,0.036489248275756836,27.405333002280344,26.63826672910628,101450.0,88.0,825.0,-57.0,-8.5625,-48.75,1.0625,-48.6875,15.3125,-8.9375,336.5625,11.5625,-108.0625,0.807373046875,-0.0069580078125,0.11962890625,0.57769775390625,-51.0,-104.0,213.0,197.0,913.0,-298.0,2132,2189.849866411102,-413.66559594630155,
103,3.867567777633667,0.03848981857299805,25.98089669098973,26.631724619191942,101450.0,198.0,882.0,-215.0,-8.5625,-48.75,1.0625,2.0625,-6.25,5.875,336.4375,11.6875,-107.875,0.80670166015625,-0.00714111328125,0.12066650390625,0.5784912109375,0.0,-30.0,80.0,198.0,913.0,-295.0,,2189.849866411102,-413.66559594630155,
104,3.9054269790649414,0.037859201431274414,26.41365803278482,26.629610682133467,101450.0,191.0,963.0,-318.0,-7.875,-50.25,1.5625,19.375,-25.625,5.6875,337.4375,11.375,-109.1875,0.81317138671875,-0.0113525390625,0.1136474609375,0.5706787109375,-2.0,56.0,-2.0,193.0,907.0,-316.0,2375,2282.424933205551,1015.7902803622433,
105,3.9461886882781982,0.040761709213256836,24.53282797264969,26.607952202562725,101450.0,251.0,964.0,-403.0,-8.5625,-49.5625,0.75,-30.625,-10.875,-9.6875,338.9375,10.9375,-109.0625,0.812744140625,-0.01519775390625,0.1063232421875,0.5726318359375,64.0,54.0,-87.0,186.0,909.0,-315.0,2474,2378.2124666027757,1682.864679560397,
106,3.987942934036255,0.04175424575805664,23.949660252383943,26.58011956372602,101450.0,143.0,846.0,-187.0,-8.875,-49.875,2.75,-113.75,27.75,-53.8125,341.0625,9.4375,-104.1875,0.7880859375,-0.0045166015625,0.10113525390625,0.607177734375,-31.0,153.0,-59.0,161.0,937.0,-237.0,2314,2346.106233301388,456.96565000419105,
107,4.025799989700317,0.0378570556640625,26.41515517936316,26.5785683028841,101450.0,57.0,1063.0,-31.0,-7.875,-49.875,-1.1875,-69.25,-110.625,-51.625,347.5,6.875,-101.5,0.7740478515625,-0.01104736328125,0.06866455078125,0.62933349609375,-6.0,132.0,114.0,117.0,953.0,-194.0,2483,2414.553116650694,1132.5003476099396,
108,4.061974763870239,0.036174774169921875,27.643572709058315,26.588052924557775,101450.0,111.0,985.0,-276.0,-6.0,-49.25,-5.0625,90.0,-60.3125,-19.25,350.3125,5.875,-103.9375,0.787353515625,-0.01739501953125,0.0518798828125,0.61407470703125,10.0,39.0,-40.0,101.0,946.0,-235.0,2535,2474.7765583253467,1398.6457181664687,
109,4.0993406772613525,0.03736591339111328,26.76235930680687,26.589641745223197,101450.0,18.0,1034.0,-360.0,-6.0,-49.25,-5.0625,54.1875,-76.5,-36.6875,354.6875,4.0,-106.625,0.80157470703125,-0.0218505859375,0.02740478515625,0.59686279296875,-62.0,107.0,-136.0,68.0,937.0,-280.0,2526,2500.3882791626734,1042.0378968403184,
110,4.13578987121582,0.03644919395446777,27.435448949823062,26.597095941835825,0,0,0,0,0,0,0,0,0,0,0,0,0,0,0,0,0,0,0,0,0,0,0,,2500.3882791626734,1042.0378968403184,
111,4.159895658493042,0.02410578727722168,41.48381417705995,26.683361582249567,101449.75,63.0,959.0,-518.0,-4.5,-49.875,0.75,85.8125,-36.625,28.875,359.25,3.1875,-111.0625,0.82318115234375,-0.0438232421875,0.003662109375,0.5660400390625,8.0,45.0,-166.0,54.0,913.0,-352.0,2493,2496.6941395813365,444.39544845200794,
112,4.198148727416992,0.038253068923950195,26.141693415189007,26.678425961557245,101449.75,154.0,976.0,-543.0,-4.5,-49.875,0.75,17.3125,-14.1875,25.75,358.875,3.8125,-112.4375,0.82940673828125,-0.0543212890625,0.0054931640625,0.55596923828125,117.0,105.0,-177.0,68.0,903.0,-374.0,2488,2492.3470697906682,165.37784136496464,
113,4.235777854919434,0.037629127502441406,26.575157766682718,26.677508564043737,101449.75,-47.0,970.0,-571.0,-5.25,-51.375,3.5,8.0,-10.25,-22.5625,359.8125,3.5625,-112.75,0.83013916015625,-0.0540771484375,-0.00079345703125,0.55487060546875,-123.0,36.0,-152.0,57.0,903.0,-376.0,2568,2530.1735348953343,585.3110596386925,
114,4.275264024734497,0.03948616981506348,25.32532288352041,26.66501983046056,101449.75,-144.0,742.0,-254.0,-6.0,-50.25,3.75,-89.125,47.625,-16.6875,359.9375,3.0625,-110.5625,0.82073974609375,-0.04705810546875,0.0001220703125,0.56939697265625,-197.0,-173.0,90.0,52.0,916.0,-359.0,2600,2565.086767447667,734.7499734669784,
115,4.313832998275757,0.038568973541259766,25.927576188415653,26.65842651905292,101449.75,-35.0,648.0,-17.0,-4.875,-50.25,1.75,-33.9375,51.4375,38.3125,356.3125,4.5,-107.75,0.8065185546875,-0.0413818359375,0.0186767578125,0.58941650390625,-112.0,-282.0,280.0,77.0,930.0,-298.0,2680,2622.5433837238334,1112.23038474792,
116,4.3521318435668945,0.038298845291137695,26.110447779776763,26.653604295436374,101449.75,110.0,701.0,-167.0,-4.875,-50.25,1.75,80.25,-24.875,43.375,354.6875,5.875,-109.5,0.8145751953125,-0.0516357421875,0.02667236328125,0.5771484375,9.0,-218.0,158.0,101.0,919.0,-325.0,2708,2665.2716918619167,1113.9428215527776,
117,4.38969874382019,0.0375669002532959,26.61917787353951,26.653309675228254,101449.75,182.0,866.0,-425.0,-5.5625,-50.6875,1.0,85.5,-19.8125,15.5625,354.5,6.4375,-112.3125,0.82757568359375,-0.06134033203125,0.026611328125,0.55731201171875,72.0,-31.0,-46.0,109.0,897.0,-379.0,2750,2707.6358459309586,1120.8208870893181,
118,4.4276628494262695,0.0379641056060791,26.340670589639082,26.65062901419657,101449.75,109.0,962.0,-427.0,-7.875,-50.25,3.375,-15.8125,6.125,-10.5625,355.25,6.125,-113.0625,0.8311767578125,-0.06256103515625,0.02276611328125,0.552001953125,4.0,65.0,-45.0,104.0,897.0,-382.0,2778,2742.8179229654793,1023.7701944574674,
119,4.461833953857422,0.034171104431152344,29.26449164131618,26.67064736847055,101449.75,126.0,972.0,-319.0,-7.5,-51.0,4.5625,1.25,19.4375,13.875,354.5625,6.4375,-112.4375,0.82818603515625,-0.062255859375,0.026123046875,0.556396484375,16.0,72.0,52.0,110.0,900.0,-372.0,2806,2774.40896148274,974.1329385431686,
120,4.500305891036987,0.03847193717956543,25.992972366651586,26.664854102250565,101449.75,64.0,989.0,-353.0,-7.5,-51.0,4.5625,-6.625,14.1875,3.625,353.1875,7.0625,-112.4375,0.8282470703125,-0.06219482421875,0.0328369140625,0.555908203125,-56.0,90.0,19.0,121.0,899.0,-372.0,2919,2846.70448074137,1426.6541864327337,
121,4.535021781921387,0.034715890884399414,28.80525242258377,26.681238992579882,101449.75,42.0,995.0,-345.0,-8.1875,-48.75,4.1875,-36.125,20.4375,-1.5,352.75,7.3125,-111.6875,0.824462890625,-0.06146240234375,0.035400390625,0.5614013671875,-82.0,92.0,14.0,124.0,903.0,-360.0,2938,2892.3522403706847,1370.7747125402877,
122,4.57930588722229,0.04428410530090332,22.581465589180635,26.64159219859467,101456.75,91.0,1066.0,-343.0,-8.1875,-49.875,3.75,-31.0,15.0,5.4375,352.0,7.625,-109.625,0.8143310546875,-0.05859375,0.0401611328125,0.57598876953125,-38.0,150.0,-16.0,130.0,915.0,-326.0,2933,2912.6761201853424,914.858852606811,
123,4.61716890335083,0.03786301612854004,26.4109968578607,26.639701205371736,101456.75,83.0,1027.0,-345.0,-8.1875,-50.25,2.1875,-27.625,6.25,-0.125,352.0625,7.6875,-108.875,0.81048583984375,-0.05963134765625,0.040283203125,0.58135986328125,-48.0,108.0,-30.0,132.0,919.0,-314.0,2999,2955.838060092671,1027.4043559392223,
124,4.654672861099243,0.037503957748413086,26.66385256479533,26.63989579940453,101456.75,115.0,1000.0,-289.0,-8.1875,-50.25,2.1875,-39.5625,20.25,-7.3125,351.4375,7.8125,-107.1875,0.80242919921875,-0.0550537109375,0.0440673828125,0.59259033203125,-17.0,72.0,-1.0,133.0,927.0,-288.0,3031,2993.4190300463356,1014.7288990128667,
125,4.689156770706177,0.034483909606933594,28.999032052877567,26.657244812306686,101456.75,130.0,982.0,-303.0,-8.5625,-49.875,1.0,0.875,3.125,-5.125,351.625,7.625,-106.5625,0.7991943359375,-0.05352783203125,0.04364013671875,0.5970458984375,0.0,51.0,-25.0,131.0,931.0,-277.0,3046,3019.709515023168,888.5637577708633,
126,4.730446815490723,0.0412900447845459,24.218912941801445,26.635961657446334,101456.75,114.0,1030.0,-291.0,-9.25,-49.875,0.25,-7.8125,-7.5625,-9.6875,352.4375,7.3125,-106.375,0.79827880859375,-0.05438232421875,0.03948974609375,0.5985107421875,-11.0,97.0,-16.0,125.0,932.0,-275.0,3074,3046.854757511584,772.99601119095,
127,4.767706871032715,0.03726005554199219,26.838392628615306,26.637543673588098,101456.75,138.0,1066.0,-442.0,-8.875,-49.5625,-1.25,21.8125,-7.875,2.875,353.0,7.25,-106.8125,0.80023193359375,-0.05767822265625,0.0362548828125,0.5958251953125,29.0,137.0,-125.0,124.0,931.0,-281.0,3130,3088.4273787557922,944.369171371862,
128,4.802935838699341,0.03522896766662598,28.385731011565976,26.650366421439234,101456.75,148.0,896.0,-335.0,-8.875,-49.5625,-1.25,-7.75,13.1875,12.375,352.4375,7.625,-107.375,0.8028564453125,-0.0596923828125,0.03912353515625,0.59185791015625,17.0,-30.0,-44.0,130.0,927.0,-290.0,3144,3116.213689377896,866.5519552473606,
129,4.8437888622283936,0.040853023529052734,24.47799241318938,26.632044391103648,101456.75,237.0,838.0,-189.0,-8.1875,-51.0,-1.25,-20.75,13.875,6.625,351.3125,8.25,-105.875,0.79498291015625,-0.05926513671875,0.04547119140625,0.60198974609375,96.0,-94.0,76.0,140.0,933.0,-265.0,3167,3141.606844688948,744.0627091491149,
130,4.883744955062866,0.039956092834472656,25.02747213404301,26.618916670747105,101456.75,186.0,869.0,-350.0,-8.875,-49.875,-1.6875,28.0,6.75,-7.125,351.3125,8.125,-106.75,0.7996826171875,-0.05865478515625,0.04498291015625,0.5958251953125,46.0,-59.0,-70.0,139.0,929.0,-280.0,3186,3163.803422344474,649.7934689469536,
131,4.922871828079224,0.03912687301635742,25.557881908476023,26.610483590655008,101450.5,124.0,867.0,-365.0,-8.5625,-50.25,-1.25,12.75,19.8125,-1.3125,350.6875,8.0,-107.1875,0.8023681640625,-0.0533447265625,0.0479736328125,0.59246826171875,-13.0,-59.0,-78.0,137.0,927.0,-287.0,3299,3231.401711172237,1188.7312760109885,
132,4.969199895858765,0.046328067779541016,21.5851868625009,26.563632529656587,101450.5,97.0,816.0,-297.0,-9.25,-49.875,-0.1875,3.125,27.8125,-4.8125,349.875,8.1875,-107.5,0.80413818359375,-0.05035400390625,0.05218505859375,0.5899658203125,-42.0,-108.0,-4.0,140.0,925.0,-292.0,3303,3267.2008555861185,980.7312488511385,
133,5.006609916687012,0.03741002082824707,26.730805753653392,26.56488166907342,101450.5,-31.0,756.0,-143.0,-8.1875,-50.25,-1.0,-12.5,29.5,-6.0,348.6875,8.3125,-106.9375,0.8016357421875,-0.04339599609375,0.05853271484375,0.5933837890625,-173.0,-171.0,140.0,142.0,927.0,-283.0,3364,3315.600427793059,1137.2454060373968,
134,5.044716835021973,0.03810691833496094,26.24195405175434,26.56244232971232,101450.5,86.0,787.0,-175.0,-8.1875,-50.25,-1.0,-2.4375,5.6875,-4.6875,348.25,8.375,-106.6875,0.800537109375,-0.04071044921875,0.06109619140625,0.59478759765625,-56.0,-141.0,103.0,143.0,929.0,-279.0,3462,3388.8002138965294,1529.0754147814534,
135,5.0770838260650635,0.03236699104309082,30.89567388790265,26.590067177328887,101450.5,55.0,829.0,-250.0,-8.1875,-50.25,-0.5,14.0,1.75,-6.8125,348.6875,8.0625,-107.1875,0.8023681640625,-0.04071044921875,0.05859375,0.5916748046875,-59.0,-104.0,54.0,139.0,927.0,-285.0,3481,3434.9001069482647,1476.6813383875283,
136,5.113894939422607,0.036811113357543945,27.16570917828714,26.59421079451337,101450.5,106.0,876.0,-270.0,-7.5,-49.5625,-1.6875,-18.3125,-18.625,-10.0,349.4375,7.75,-107.0625,0.802490234375,-0.0400390625,0.05474853515625,0.59283447265625,-26.0,-52.0,14.0,132.0,928.0,-285.0,3603,3518.9500534741323,1879.9788710799173,
137,5.151465892791748,0.037570953369140625,26.61630622398213,26.594371942110484,101450.5,127.0,960.0,-253.0,-7.5,-49.5625,-1.6875,-20.5625,-12.5,-4.625,350.4375,7.3125,-106.125,0.7978515625,-0.04058837890625,0.0499267578125,0.599365234375,1.0,26.0,17.0,125.0,933.0,-271.0,3645,3581.9750267370664,1778.7354296022281,
138,5.189702749252319,0.03823685646057129,26.152777517973277,26.59111834871114,101450.5,110.0,1006.0,-300.0,-7.0625,-51.375,-2.0625,-18.3125,-20.0625,-4.375,351.6875,7.0,-105.875,0.7962646484375,-0.04376220703125,0.04345703125,0.601806640625,-9.0,70.0,-33.0,119.0,936.0,-266.0,3612,3596.987513368533,1085.6768262332637,
139,5.224900722503662,0.03519797325134277,28.410726744382956,26.603376290256886,101450.5,148.0,981.0,-253.0,-7.5,-50.25,-1.25,-33.25,-16.3125,1.875,352.75,6.875,-105.0625,0.7916259765625,-0.04840087890625,0.0384521484375,0.60784912109375,56.0,41.0,-4.0,117.0,940.0,-253.0,3645,3620.9937566842664,883.8558226178643,
140,5.26329779624939,0.03839707374572754,26.043651311091654,26.59929295654971,101450.5,99.0,1036.0,-294.0,-7.0625,-49.875,-1.6875,0.5625,-21.0,0.6875,354.3125,6.5625,-104.75,0.7899169921875,-0.0545654296875,0.03021240234375,0.61004638671875,-3.0,107.0,-45.0,112.0,941.0,-248.0,3692,3656.496878342133,904.243371765307,
141,5.3044328689575195,0.04113507270812988,24.31015515872326,26.58154103997752,101454.0,220.0,1066.0,-426.0,-7.0625,-49.875,-1.6875,25.125,-21.8125,24.4375,354.375,7.0625,-105.375,0.79248046875,-0.06298828125,0.029541015625,0.60589599609375,100.0,128.0,-167.0,122.0,936.0,-264.0,3753,3704.748439171067,1038.6231510836285,
142,5.3454718589782715,0.04103899002075195,24.367071399523617,26.56453980980114,101454.0,147.0,1011.0,-505.0,-8.1875,-50.25,-1.6875,-3.875,-18.25,-3.5625,356.0,7.0,-106.625,0.79791259765625,-0.074462890625,0.02069091796875,0.5977783203125,-67.0,60.0,-159.0,119.0,932.0,-279.0,3697,3700.8742195855334,472.1098829127516,
143,5.381892919540405,0.03642106056213379,27.45664142025779,26.57057695830405,101454.0,-31.0,1006.0,-375.0,-7.875,-49.5,-1.0,-4.0625,-8.1875,9.0,356.5625,6.9375,-106.3125,0.7960205078125,-0.0772705078125,0.01776123046875,0.60009765625,-161.0,54.0,-88.0,118.0,934.0,-273.0,3763,3731.937109792767,662.4962604047998,
144,5.418778896331787,0.036885976791381836,27.11057390877184,26.5742527523092,101454.0,65.0,948.0,-337.0,-8.1875,-50.25,-0.1875,8.9375,-11.75,24.0,356.4375,7.4375,-106.5625,0.7965087890625,-0.08428955078125,0.01849365234375,0.59844970703125,-62.0,17.0,-60.0,127.0,931.0,-277.0,3819,3775.4685548963835,921.3293601210199,
145,5.456413984298706,0.037635087966918945,26.570948920831405,26.574229964450975,101454.0,41.0,956.0,-386.0,-8.1875,-50.25,-0.1875,10.0,-18.25,-0.0625,356.875,7.625,-107.125,0.79888916015625,-0.0899658203125,0.01611328125,0.594482421875,-88.0,27.0,-99.0,130.0,928.0,-287.0,3837,3806.2342774481917,869.4019012787942,
146,5.495826959609985,0.0394129753112793,25.372354969451333,26.565610793968844,101454.0,-14.0,909.0,-340.0,-9.6875,-48.75,-1.25,-0.3125,-0.3125,4.625,357.5,7.5,-107.375,0.79974365234375,-0.093505859375,0.0128173828125,0.5928955078125,-142.0,-18.0,-49.0,128.0,927.0,-290.0,3846,3826.1171387240956,686.9384576896931,
147,5.53591775894165,0.04009079933166504,24.943378946554628,26.553862683845807,101454.0,70.0,747.0,-189.0,-9.25,-50.6875,-1.0,-5.25,10.375,10.375,356.625,8.0625,-107.1875,0.79840087890625,-0.09521484375,0.01727294921875,0.59429931640625,-66.0,-189.0,112.0,138.0,927.0,-287.0,3917,3871.558569362048,910.2006409828559,
148,5.573835611343384,0.0379178524017334,26.372801639849346,26.552630956464398,101454.0,86.0,748.0,-178.0,-10.75,-49.1875,-1.25,1.0625,2.0,3.8125,356.8125,8.1875,-107.1875,0.7979736328125,-0.09808349609375,0.0164794921875,0.594482421875,-64.0,-193.0,108.0,140.0,927.0,-287.0,3959,3915.279284681024,1031.6191968212675,
149,5.613776922225952,0.03994131088256836,25.036734596420853,26.541845546103232,101454.0,182.0,779.0,-206.0,-9.6875,-50.25,-0.1875,9.625,-4.625,4.875,357.0,8.1875,-107.5,0.7994384765625,-0.1002197265625,0.01531982421875,0.59210205078125,42.0,-145.0,86.0,140.0,925.0,-292.0,3968,3941.639642340512,845.7982377043024,
150,5.654162883758545,0.04038596153259277,24.76107939618988,26.529126076447426,101454.0,180.0,855.0,-276.0,-9.6875,-50.25,-0.1875,15.4375,-5.75,-1.0625,357.0,8.25,-108.0625,0.8021240234375,-0.10150146484375,0.015380859375,0.5882568359375,39.0,-67.0,24.0,141.0,922.0,-301.0,4062,4001.819821170256,1167.9622118922484,
151,5.690350770950317,0.03618788719177246,27.63355580005666,26.536149716967664,101445.75,130.0,908.0,-271.0,-10.375,-50.6875,0.6875,-3.375,5.8125,-0.0625,357.125,8.25,-108.125,0.8023681640625,-0.1024169921875,0.0146484375,0.58782958984375,-32.0,-12.0,50.0,141.0,922.0,-302.0,4109,4055.4099105851283,1324.4234690340722,
152,5.7288498878479,0.03849911689758301,25.97462177276021,26.532376127086884,101445.75,148.0,926.0,-246.0,-9.6875,-49.875,1.0,-1.6875,12.75,10.3125,356.3125,8.625,-108.0625,0.80194091796875,-0.10260009765625,0.018798828125,0.5882568359375,-23.0,15.0,48.0,147.0,921.0,-301.0,4161,4108.204955292564,1347.8773933928364,
153,5.766508102416992,0.0376582145690918,26.55463121240899,26.532521464050507,101445.75,98.0,980.0,-238.0,-10.375,-49.1875,0.6875,-13.0625,10.75,-0.125,356.125,8.75,-107.875,0.80096435546875,-0.1029052734375,0.0198974609375,0.5894775390625,-51.0,58.0,60.0,150.0,922.0,-298.0,4175,4141.602477646282,1117.3681414520038,
154,5.811241865158081,0.04473376274108887,22.354479898948444,26.500359746394896,101445.75,70.0,1080.0,-277.0,-10.375,-49.1875,-1.0,-11.0,7.3125,-1.375,355.875,8.8125,-107.0,0.79669189453125,-0.10064697265625,0.02130126953125,0.5955810546875,-80.0,154.0,6.0,150.0,925.0,-285.0,4175,4158.301238823141,745.3301312587204,
155,5.849459886550903,0.038218021392822266,26.165666446243872,26.498172994805298,101445.75,97.0,1078.0,-290.0,-10.375,-49.1875,-1.0,-22.0625,5.25,-2.9375,355.9375,8.75,-106.25,0.79302978515625,-0.0987548828125,0.0211181640625,0.60076904296875,-60.0,151.0,-28.0,149.0,930.0,-271.0,4231,4194.65061941157,848.2179496315638,
156,5.8853759765625,0.03591609001159668,27.842674402395065,26.506377947856386,101445.75,48.0,1083.0,-330.0,-10.0625,-49.875,-1.6875,-16.375,-3.875,-12.625,356.5625,8.375,-105.6875,0.7901611328125,-0.09735107421875,0.01806640625,0.6048583984375,-94.0,149.0,-68.0,143.0,933.0,-262.0,4240,4217.325309705785,739.7709843342698,
157,5.924422979354858,0.0390470027923584,25.61016028087315,26.50047110868113,101445.75,122.0,1035.0,-238.0,-10.375,-49.1875,-1.0,-17.625,3.25,11.75,356.75,8.5,-104.9375,0.78594970703125,-0.099853515625,0.01708984375,0.60992431640625,-23.0,98.0,11.0,145.0,936.0,-250.0,4273,4245.162654852893,726.3449276728454,
158,5.963843822479248,0.03942084312438965,25.367291025323116,26.49298081959452,101445.75,246.0,1073.0,-358.0,-11.5625,-49.5,-2.875,23.25,-10.25,15.625,356.4375,9.1875,-105.1875,0.78619384765625,-0.10797119140625,0.01861572265625,0.608154296875,88.0,139.0,-104.0,157.0,933.0,-254.0,4325,4285.0813274264465,869.4867560953808,
159,6.000161647796631,0.03631782531738281,27.534688304185703,26.499286074798952,101445.75,197.0,1003.0,-416.0,-11.5625,-49.5,-2.875,16.6875,-4.375,9.4375,356.375,9.4375,-105.9375,0.789306640625,-0.11175537109375,0.0198974609375,0.6033935546875,22.0,22.0,-99.0,163.0,929.0,-265.0,4353,4319.040663713224,902.2732478844073,
160,6.039452791213989,0.0392911434173584,25.451028222258632,26.492466375888075,101445.75,176.0,794.0,-116.0,-12.25,-49.1875,-2.0625,-46.875,35.3125,7.5625,355.5,10.0,-104.75,0.78076171875,-0.11065673828125,0.02581787109375,0.61444091796875,14.0,-130.0,146.0,172.0,935.0,-238.0,4395,4357.020331856612,934.4474268368981,
161,6.076963901519775,0.03751111030578613,26.658768344848188,26.493492903542812,101445.75,290.0,854.0,-214.0,-11.5625,-49.5,-2.0625,37.5625,-0.3125,5.0625,354.8125,10.3125,-104.5625,0.7821044921875,-0.1114501953125,0.02777099609375,0.6124267578125,113.0,-78.0,29.0,176.0,933.0,-243.0,4433,4395.010165928306,973.6048064067118,
162,6.1165077686309814,0.039543867111206055,25.28837144803719,26.485701666370876,101445.75,316.0,972.0,-443.0,-12.25,-49.1875,-1.6875,36.0625,15.5625,-8.125,354.3125,10.375,-106.25,0.791015625,-0.1107177734375,0.02978515625,0.6009521484375,139.0,46.0,-173.0,176.0,925.0,-270.0,4559,4477.005082964153,1523.5613626300992,
163,6.15737771987915,0.040869951248168945,24.467853996884863,26.47230808559186,101445.75,73.0,972.0,-473.0,-12.25,-49.1875,-1.6875,12.125,5.25,-31.0,354.75,9.4375,-107.0,0.79632568359375,-0.102294921875,0.02703857421875,0.59552001953125,-87.0,48.0,-190.0,161.0,924.0,-283.0,4601,4539.002541482077,1520.2530629122875,
164,6.195770740509033,0.03839302062988281,26.04640071538576,26.469668886832643,101445.75,3.0,718.0,-104.0,-11.5625,-50.6875,-0.1875,-56.0625,42.6875,-7.625,354.0,9.25,-105.4375,0.78924560546875,-0.0921630859375,0.031494140625,0.6063232421875,-155.0,-214.0,153.0,158.0,932.0,-257.0,4671,4605.001270741039,1619.6412059487352,
165,6.229836702346802,0.034065961837768555,29.354814778525085,26.485445427139993,101445.75,72.0,740.0,-122.0,-10.375,-50.25,-2.0625,-15.4375,15.0,-5.1875,353.3125,9.375,-104.3125,0.78387451171875,-0.08740234375,0.0355224609375,0.61370849609375,-87.0,-197.0,117.0,159.0,937.0,-239.0,4713,4659.000635370519,1602.391276402589,
166,6.268651962280273,0.03881525993347168,25.763063334213744,26.480972464072824,101445.75,145.0,833.0,-289.0,-10.75,-51.0,-1.6875,12.1875,8.6875,-7.5,353.5625,9.125,-104.9375,0.7874755859375,-0.08636474609375,0.0341796875,0.60931396484375,-10.0,-101.0,-39.0,156.0,935.0,-250.0,4648,4653.50031768526,730.3431217594739,
167,6.306468725204468,0.037816762924194336,26.443299814015067,26.480746559888082,101445.75,145.0,872.0,-210.0,-10.75,-51.0,-1.6875,-28.5625,14.4375,-16.25,353.5625,8.75,-104.0625,0.78369140625,-0.07989501953125,0.034423828125,0.61505126953125,-3.0,-67.0,26.0,149.0,939.0,-236.0,4742,4697.750158842629,950.2274691031722,
168,6.341041803359985,0.03457307815551758,28.92423970760637,26.494069146647213,101445.75,125.0,893.0,-189.0,-10.0625,-49.875,-2.0625,-21.125,14.1875,-8.0,353.6875,8.3125,-103.0625,0.7786865234375,-0.07421875,0.0341796875,0.6220703125,-17.0,-51.0,29.0,142.0,945.0,-219.0,4770,4733.875079421315,997.5566656696542,
169,6.3761069774627686,0.0350651741027832,28.518324108951955,26.505201464993274,101445.75,156.0,910.0,-191.0,-10.0625,-49.875,-3.6875,-18.4375,0.375,-3.875,353.9375,8.25,-102.5,0.7757568359375,-0.07440185546875,0.03289794921875,0.62579345703125,15.0,-37.0,18.0,141.0,947.0,-210.0,4784,4758.937539710658,856.1480155844393,
170,6.412601709365845,0.03649473190307617,27.401215130332528,26.510300764775184,101445.75,140.0,944.0,-177.0,-9.1875,-50.25,-3.6875,-9.75,3.9375,1.6875,354.25,8.1875,-102.0,0.7730712890625,-0.0748291015625,0.03143310546875,0.62908935546875,0.0,-5.0,25.0,140.0,949.0,-202.0,4859,4808.968769855329,1113.532258006875,
171,6.448201894760132,0.03560018539428711,28.089741357371516,26.519020773675862,101446.75,124.0,981.0,-207.0,-9.1875,-50.25,-3.6875,-2.5,-11.1875,-2.1875,354.5,8.125,-101.8125,0.77178955078125,-0.07562255859375,0.03021240234375,0.630615234375,-14.0,31.0,-8.0,139.0,950.0,-198.0,4864,4836.484384927664,943.2193843388807,
172,6.483350038528442,0.03514814376831055,28.451004599042207,26.529494625133594,101446.75,107.0,974.0,-250.0,-8.75,-49.875,-4.875,-1.875,4.6875,16.5,354.3125,8.375,-102.25,0.7738037109375,-0.07855224609375,0.03094482421875,0.62774658203125,-36.0,26.0,-44.0,143.0,947.0,-205.0,,4836.484384927664,943.2193843388807,
173,6.527941942214966,0.04459190368652344,22.425595620000855,26.501461185069942,101446.75,201.0,1106.0,-351.0,-10.0,-50.6875,-4.0,5.4375,-12.9375,5.3125,354.125,8.875,-101.9375,0.771728515625,-0.08349609375,0.03228759765625,0.629638671875,49.0,159.0,-150.0,151.0,947.0,-201.0,4953,4894.742192463832,1124.8427089264114,
174,6.56469988822937,0.0367579460144043,27.205002140438726,26.50540054572567,101446.75,-15.0,1112.0,-468.0,-10.25,-50.6875,-5.1875,30.6875,-49.25,-24.4375,356.875,7.8125,-103.6875,0.7806396484375,-0.08978271484375,0.0166015625,0.6182861328125,-149.0,168.0,-237.0,134.0,943.0,-230.0,5023,4958.871096231916,1434.734836600569,
175,6.602473974227905,0.037774085998535156,26.473175288444544,26.505216178525647,101446.75,7.0,982.0,-299.0,-10.25,-50.6875,-5.1875,-5.3125,-9.9375,17.9375,357.9375,7.625,-103.75,0.7803955078125,-0.0941162109375,0.010986328125,0.61810302734375,-122.0,38.0,-67.0,130.0,944.0,-231.0,5018,4988.435548115958,1108.6998768167957,
176,6.640417814254761,0.03794384002685547,26.354738985095633,26.504356340678857,101446.75,129.0,955.0,-344.0,-9.5625,-51.0,-3.6875,17.5,-19.375,23.9375,357.5,8.5625,-104.125,0.78125,-0.104248046875,0.01324462890625,0.6153564453125,-16.0,15.0,-106.0,146.0,940.0,-237.0,5051,5019.717774057979,966.5673881957719,
177,6.677968740463257,0.037550926208496094,26.630501587301588,26.505065668774208,101446.75,68.0,954.0,-380.0,-10.25,-50.25,-3.1875,16.4375,-29.9375,2.875,358.375,8.625,-104.9375,0.7841796875,-0.1123046875,0.0086669921875,0.6102294921875,-79.0,17.0,-129.0,147.0,936.0,-250.0,5121,5070.35888702899,1157.5828137764922,
178,6.711997985839844,0.034029245376586914,29.386487679448464,26.519674227483787,101446.75,41.0,818.0,-198.0,-11.5,-51.75,-2.875,-13.3125,1.25,9.4375,358.9375,8.6875,-105.0625,0.7840576171875,-0.11749267578125,0.00537109375,0.6094970703125,-106.0,-117.0,53.0,148.0,935.0,-252.0,5088,5079.179443514495,708.3939941318354,
179,6.747085809707642,0.03508782386779785,28.499915063634326,26.529972353761462,101446.75,82.0,752.0,-154.0,-11.5,-51.75,-2.875,-0.625,-0.5,14.125,358.625,9.0,-104.8125,0.7823486328125,-0.119384765625,0.0072021484375,0.61126708984375,-72.0,-184.0,92.0,154.0,936.0,-247.0,5065,5072.089721757247,253.16876311274223,
180,6.7826008796691895,0.03551506996154785,28.157061244218287,26.53849212026452,101446.75,142.0,751.0,-175.0,-11.5,-51.0,-3.1875,6.0,-11.75,9.5,358.8125,9.3125,-105.0625,0.78271484375,-0.125244140625,0.00616455078125,0.60955810546875,-16.0,-183.0,76.0,159.0,934.0,-251.0,5140,5106.044860878624,604.6228474546435,
181,6.819507837295532,0.03690695762634277,27.095162113450346,26.541504800408095,101446.5,215.0,816.0,-191.0,-12.5625,-49.875,-2.5,12.75,-4.5,8.6875,359.0,9.625,-105.5,0.7840576171875,-0.13128662109375,0.00531005859375,0.60662841796875,51.0,-115.0,67.0,164.0,931.0,-258.0,5158,5132.022430439312,654.2446530074672,
182,6.858668088912964,0.03916025161743164,25.536097412480974,26.535764326342452,101446.5,245.0,879.0,-199.0,-12.5625,-51.375,-1.6875,10.9375,2.8125,7.375,358.6875,9.875,-105.8125,0.785400390625,-0.1329345703125,0.007080078125,0.60455322265625,76.0,-49.0,63.0,168.0,929.0,-263.0,5182,5157.011215219656,646.1803476889248,
183,6.894888877868652,0.03622078895568848,27.60845439406007,26.54139946872776,101446.5,191.0,962.0,-240.0,-12.5625,-51.375,-1.6875,10.875,5.625,0.9375,358.375,10.0625,-106.25,0.787353515625,-0.13458251953125,0.00836181640625,0.6015625,20.0,35.0,30.0,171.0,926.0,-270.0,5219,5188.005607609828,750.9438082322945,
184,6.9313390254974365,0.03645014762878418,27.434731134266073,26.546097272567764,101446.5,146.0,951.0,-142.0,-11.75,-51.0,-1.6875,-22.5625,22.9375,6.0,357.5,10.375,-105.625,0.78460693359375,-0.1318359375,0.0130615234375,0.605712890625,-30.0,22.0,118.0,176.0,928.0,-260.0,5215,5201.502803804914,560.6178784554585,
185,6.969596862792969,0.03825783729553223,26.13843517277911,26.543859514689895,101446.5,141.0,944.0,-73.0,-12.5625,-50.6875,-2.0625,-21.9375,20.75,5.375,356.6875,10.6875,-104.875,0.78082275390625,-0.12994384765625,0.01751708984375,0.61083984375,-40.0,13.0,175.0,182.0,931.0,-248.0,5294,5247.751401902457,884.7419308299945,
186,7.010679721832275,0.04108285903930664,24.341051800782292,26.530950974806192,101446.5,149.0,1036.0,-162.0,-12.5625,-50.6875,-2.0625,-4.25,12.875,2.5,355.8125,11.0,-104.375,0.77850341796875,-0.12750244140625,0.0223388671875,0.6141357421875,-31.0,114.0,62.0,188.0,932.0,-238.0,5374,5310.875700951228,1210.6268819321097,
187,7.047216892242432,0.03653717041015625,27.369388181248695,26.535297956537903,101446.5,137.0,1062.0,-227.0,-12.5625,-51.0,-2.875,-20.0,9.875,-9.9375,355.5,10.9375,-103.8125,0.7760009765625,-0.12384033203125,0.02398681640625,0.61798095703125,-86.0,150.0,0.0,186.0,934.0,-230.0,5454,5382.437850475614,1584.619565674794,
188,7.085232734680176,0.03801584243774414,26.304822828472876,26.53406134138602,101446.5,88.0,1098.0,-307.0,-13.0,-51.0,-2.0625,-8.5,-0.25,4.625,355.875,10.8125,-103.1875,0.772705078125,-0.1231689453125,0.0223388671875,0.622314453125,-107.0,156.0,-85.0,183.0,937.0,-221.0,5501,5441.718925237807,1571.998867187861,
189,7.124571800231934,0.03933906555175781,25.420024242424244,26.527910069465126,101446.5,145.0,1074.0,-284.0,-11.75,-49.875,-4.0,-7.375,6.3125,17.25,355.5,11.0625,-103.0625,0.77166748046875,-0.12445068359375,0.02447509765625,0.623291015625,-43.0,137.0,-67.0,189.0,937.0,-217.0,5529,5485.359462618903,1340.6711926838802,
190,7.161367654800415,0.036795854568481445,27.176974464307698,26.531245030080115,101446.5,214.0,1129.0,-305.0,-11.75,-49.875,-4.0,11.5625,-9.0625,12.125,354.875,11.6875,-102.9375,0.77044677734375,-0.1282958984375,0.02777099609375,0.6239013671875,15.0,194.0,-89.0,198.0,935.0,-215.0,5534,5509.679731309452,1000.8112569260136,
191,7.196553945541382,0.0351862907409668,28.420159640064508,26.540480547406148,101450.0,207.0,1093.0,-511.0,-13.0,-50.6875,-4.0,8.1875,-4.6875,12.3125,354.875,12.0625,-104.125,0.77557373046875,-0.13525390625,0.02734375,0.61602783203125,-6.0,94.0,-249.0,205.0,929.0,-234.0,5571,5540.339865654726,936.088584802262,
192,7.2336108684539795,0.037056922912597656,26.985510976143296,26.54276038504068,101450.0,149.0,862.0,-189.0,-13.0,-49.875,-3.1875,-49.375,19.8125,0.5,354.25,12.375,-102.125,0.7650146484375,-0.1324462890625,0.03131103515625,0.62945556640625,-43.0,-80.0,38.0,210.0,936.0,-201.0,5688,5614.169932827363,1464.2153364294209,
193,7.270497798919678,0.03688693046569824,27.10987299227612,26.545637635524468,101450.0,209.0,891.0,-310.0,-13.25,-50.25,-6.0,17.625,-20.75,-9.9375,354.8125,12.125,-102.125,0.76513671875,-0.1326904296875,0.0283203125,0.62945556640625,3.0,-45.0,-108.0,206.0,937.0,-202.0,5678,5646.084966413681,1164.7139217493739,
194,7.3068578243255615,0.03636002540588379,27.502731057998098,26.55040027659312,101450.0,207.0,909.0,-387.0,-13.25,-50.25,-6.0,-14.0,6.125,-6.125,355.375,11.75,-102.375,0.7667236328125,-0.1318359375,0.02532958984375,0.6278076171875,7.0,-27.0,-181.0,200.0,937.0,-206.0,5791,5718.54248320684,1578.746759621002,
195,7.3440330028533936,0.03717517852783203,26.899669069546704,26.55216826016934,101450.0,198.0,856.0,-358.0,-13.25,-50.6875,-4.0,-6.5625,8.625,-9.25,355.3125,11.5625,-101.875,0.7645263671875,-0.12835693359375,0.0257568359375,0.63116455078125,1.0,-83.0,-159.0,197.0,939.0,-198.0,5782,5750.27124160342,1216.1199302383013,
196,7.385127782821655,0.04109477996826172,24.333990856559375,26.539825140996243,101450.0,80.0,808.0,-246.0,-13.0,-50.25,-4.375,-21.4375,16.6875,-16.3125,355.4375,11.0625,-101.0625,0.76129150390625,-0.1214599609375,0.0250244140625,0.63641357421875,-131.0,-143.0,-40.0,188.0,944.0,-184.0,,5750.27124160342,1216.1199302383013,
197,7.419471740722656,0.03434395790100098,29.117203173919986,26.551755554070244,101450.0,50.0,775.0,-144.0,-12.5625,-51.0,-5.5625,-8.5,11.9375,-5.5625,355.375,10.875,-100.5625,0.7591552734375,-0.11749267578125,0.02569580078125,0.6396484375,-135.0,-171.0,32.0,185.0,946.0,-176.0,5894,5822.13562080171,1654.304830161263,
198,7.4574058055877686,0.037934064865112305,26.361530290936287,26.550787923012095,101450.0,135.0,807.0,-182.0,-12.5625,-51.0,-5.5625,0.6875,-1.3125,-5.0,355.4375,10.75,-100.375,0.75860595703125,-0.11602783203125,0.0252685546875,0.640625,-47.0,-139.0,-8.0,183.0,947.0,-174.0,5843,5832.567810400855,964.6566561399599,
199,7.493060827255249,0.03565502166748047,28.04654024126033,26.557905319033,101450.0,134.0,862.0,-226.0,-12.5625,-50.6875,-6.375,-2.125,-2.5,-6.6875,355.9375,10.5,-100.3125,0.75823974609375,-0.11578369140625,0.02239990234375,0.6412353515625,-59.0,-83.0,-52.0,178.0,948.0,-173.0,5932,5882.283905200427,1179.510554787243,
200,7.528621673583984,0.03556084632873535,28.12081553840687,26.565287601281526,101450.0,103.0,860.0,-143.0,-11.75,-51.0,-5.5625,-23.25,-5.375,-3.0625,356.375,10.3125,-99.75,0.75396728515625,-0.1163330078125,0.0194091796875,0.64617919921875,-56.0,-77.0,15.0,176.0,951.0,-160.0,6011,5946.641952600214,1494.65566706434,
201,7.562999725341797,0.0343780517578125,29.08832667554372,26.57675622101337,101447.5,131.0,940.0,-200.0,-11.5,-51.6875,-5.1875,-9.1875,-17.25,1.3125,356.875,10.3125,-99.375,0.75262451171875,-0.1181640625,0.0174560546875,0.64752197265625,-38.0,-23.0,-25.0,175.0,951.0,-157.0,5950,5948.320976300107,771.747828471406,
202,7.6025097370147705,0.03951001167297363,25.310040611403778,26.5701731385507,101447.5,114.0,957.0,-184.0,-11.5,-51.6875,-5.1875,-17.4375,-22.6875,0.9375,358.25,10.1875,-99.0625,0.74981689453125,-0.12493896484375,0.0098876953125,0.649658203125,-59.0,4.0,-31.0,173.0,953.0,-152.0,5922,5935.160488150053,219.32766946382782,
203,7.642209768295288,0.03970003128051758,25.188897029679186,26.562997634816593,101447.5,117.0,995.0,-259.0,-11.0625,-50.5625,-6.75,-1.0625,-38.0,0.75,359.3125,10.0625,-99.0625,0.7486572265625,-0.13262939453125,0.00152587890625,0.6495361328125,-45.0,48.0,-124.0,171.0,953.0,-153.0,6021,5978.080244075027,650.2144909984715,
204,7.6772918701171875,0.035082101821899414,28.504563525773897,26.571869801386892,101447.5,115.0,1018.0,-274.0,-11.75,-52.375,-6.375,-9.6875,-27.5,5.9375,0.6875,10.0,-99.125,0.7476806640625,-0.1387939453125,-0.0025634765625,0.64935302734375,-57.0,57.0,-123.0,170.0,953.0,-154.0,6030,6004.040122037513,695.0947407507549,
205,7.712913990020752,0.03562211990356445,28.072444950137207,26.578800212894432,101447.5,121.0,998.0,-192.0,-11.75,-52.375,-6.375,-16.3125,-30.5,2.125,1.625,10.0,-98.75,0.74468994140625,-0.14404296875,-0.0093994140625,0.651611328125,-48.0,44.0,-45.0,170.0,954.0,-147.0,6054,6029.020061018757,698.1713513297473,
206,7.7483298778533936,0.0354158878326416,28.23591504257969,26.586374515209783,101447.5,40.0,1168.0,-317.0,-11.5,-50.5625,-5.5625,20.625,-61.875,-9.8125,4.0625,9.5625,-99.0,0.74615478515625,-0.15277099609375,-0.02313232421875,0.6475830078125,-119.0,213.0,-160.0,160.0,954.0,-157.0,6035,6032.010030509378,391.29793792342286,
207,7.785584926605225,0.037255048751831055,26.841999500828752,26.587597714415907,101447.5,13.0,1074.0,-462.0,-12.5625,-51.25,-6.0,20.1875,-53.5625,20.625,6.625,9.125,-100.75,0.75177001953125,-0.1656494140625,-0.03485107421875,0.6373291015625,-149.0,194.0,-301.0,155.0,951.0,-181.0,6044,6038.005015254689,276.1076577322661,
208,7.82194185256958,0.03635692596435547,27.50507567610104,26.591862215348748,101447.5,52.0,862.0,-92.0,-12.5625,-52.75,-4.375,-41.4375,-24.1875,14.1875,7.125,9.8125,-99.875,0.7432861328125,-0.17987060546875,-0.0404052734375,0.64312744140625,-115.0,-89.0,73.0,168.0,951.0,-166.0,6044,6041.002507627345,179.27695614035073,
209,7.862810850143433,0.04086899757385254,24.468424952017596,26.58082509973993,101447.5,62.0,935.0,-307.0,-13.6875,-50.5625,-5.1875,33.5,-70.75,-2.875,9.625,9.5,-100.75,0.7451171875,-0.193115234375,-0.0537109375,0.6361083984375,-100.0,-14.0,-125.0,162.0,949.0,-181.0,6082,6061.5012538136725,340.4244944054808,
210,7.903009653091431,0.04019880294799805,24.87636264427126,26.57215532032838,101447.5,1.0,974.0,-313.0,-13.6875,-50.5625,-5.1875,-3.875,-43.0,3.1875,12.1875,9.0,-101.375,0.74566650390625,-0.203857421875,-0.06756591796875,0.6307373046875,-152.0,24.0,-122.0,153.0,949.0,-191.0,6086,6073.750626906836,322.57217081800036,
211,7.945468902587891,0.04245924949645996,23.551994250001403,26.556016087518252,101450.5,88.0,862.0,-237.0,-14.0625,-52.375,-4.0,4.5,-38.0,14.125,13.4375,9.125,-101.625,0.7445068359375,-0.21295166015625,-0.07257080078125,0.6285400390625,-84.0,-55.0,-53.0,156.0,948.0,-195.0,6124,6098.875313453418,457.1543219480921,
212,7.979060888290405,0.03359198570251465,29.769005287625536,26.569542828168988,101450.5,10.0,842.0,-141.0,-13.0,-51.6875,-3.6875,-7.0625,-38.4375,-7.75,14.625,9.0,-101.8125,0.74322509765625,-0.22076416015625,-0.08074951171875,0.62640380859375,-143.0,-105.0,57.0,153.0,948.0,-198.0,6124,6111.437656726709,415.56139263782853,
213,8.015156030654907,0.03609514236450195,27.704558965348692,26.574654215757803,101450.5,-62.0,866.0,-104.0,-14.0625,-52.75,-2.0625,-6.0,-52.5,-7.8125,17.375,8.1875,-101.75,0.740966796875,-0.22760009765625,-0.095458984375,0.62451171875,-202.0,-83.0,93.0,140.0,950.0,-197.0,6147,6129.218828363355,454.0904553591356,
214,8.053168773651123,0.03801274299621582,26.306967642391665,26.573390675752258,101450.5,39.0,857.0,-101.0,-14.0625,-52.75,-2.0625,0.375,-56.0625,20.0,19.5625,8.125,-101.875,0.73760986328125,-0.2413330078125,-0.107421875,0.6214599609375,-99.0,-91.0,98.0,138.0,949.0,-200.0,6176,6152.6094141816775,534.7129198091656,
215,8.08757472038269,0.03440594673156738,29.064743016721064,26.58398932106887,101450.5,154.0,884.0,-175.0,-14.1875,-51.25,-2.5,7.75,-56.4375,26.3125,20.8125,8.5,-102.3125,0.7353515625,-0.25518798828125,-0.11358642578125,0.617431640625,9.0,-63.0,32.0,145.0,947.0,-207.0,6204,6178.304707090839,640.7700024766561,
216,8.12154483795166,0.03397011756896973,29.437637299008287,26.595925320838035,101450.5,181.0,880.0,-136.0,-14.5,-52.375,-1.0,-18.5625,-39.1875,21.875,22.0,9.0625,-102.4375,0.730224609375,-0.2705078125,-0.1199951171875,0.61578369140625,26.0,-65.0,71.0,154.0,945.0,-208.0,6166,6172.15235354542,229.82962513567315,
217,8.157837867736816,0.03629302978515625,27.553500105108263,26.600185431265636,101450.5,193.0,898.0,-105.0,-14.5,-52.375,-1.0,-14.8125,-34.6875,19.875,22.8125,9.4375,-102.0625,0.724853515625,-0.27935791015625,-0.12457275390625,0.6173095703125,32.0,-47.0,97.0,161.0,945.0,-202.0,6190,6181.07617677271,237.85609468338905,
218,8.190905809402466,0.033067941665649414,30.240769447068068,26.61488302670438,101450.5,152.0,993.0,-201.0,-14.5,-52.0625,-1.1875,-2.0625,-34.5625,20.1875,23.5625,9.875,-102.1875,0.72119140625,-0.28985595703125,-0.1285400390625,0.615966796875,-15.0,49.0,2.0,168.0,944.0,-204.0,6260,6220.5380883863545,715.6073328660965,
219,8.230294704437256,0.03938889503479004,25.387866278471513,26.609010717675638,101450.5,136.0,1047.0,-266.0,-16.0,-51.6875,-0.375,-12.3125,-29.8125,19.25,24.0625,10.25,-102.1875,0.71771240234375,-0.2979736328125,-0.13128662109375,0.61553955078125,-38.0,104.0,-62.0,174.0,943.0,-203.0,6232,6226.269044193177,430.55203626877113,
220,8.264338970184326,0.03404426574707031,29.373522326180737,26.620398896234185,101450.5,115.0,1059.0,-239.0,-17.875,-52.375,-2.0,-23.6875,-31.75,11.6875,25.0,10.5625,-101.5625,0.710693359375,-0.3062744140625,-0.13726806640625,0.6182861328125,-64.0,115.0,-45.0,180.0,944.0,-193.0,6232,6229.134522096589,257.36060771990134,
221,8.30154800415039,0.03720903396606445,26.87519382825215,26.621540933029625,101450.5,54.0,1135.0,-327.0,-17.875,-52.375,-2.0,-7.625,-44.625,22.3125,26.4375,10.75,-101.3125,0.704345703125,-0.3172607421875,-0.14544677734375,0.6181640625,-128.0,191.0,-137.0,183.0,944.0,-189.0,6246,6237.567261048294,241.99605077502176,
222,8.337852954864502,0.03630495071411133,27.54445276278288,26.625559505757405,101438.5,129.0,1129.0,-413.0,-18.25,-52.0625,-0.875,-12.4375,-51.5,35.375,27.3125,11.375,-101.4375,0.698486328125,-0.33062744140625,-0.15008544921875,0.61663818359375,-65.0,187.0,-222.0,194.0,942.0,-190.0,6288,6262.783630524147,468.28357432576524,
223,8.376302719116211,0.038449764251708984,26.0079618031872,26.62272454541004,101438.5,163.0,1016.0,-369.0,-19.0,-52.0625,-1.5625,-36.25,-46.5,25.9375,28.4375,12.25,-100.75,0.68701171875,-0.345703125,-0.15716552734375,0.6195068359375,-44.0,75.0,-190.0,208.0,941.0,-179.0,6302,6282.391815262074,489.12624700979694,
224,8.415318727493286,0.039016008377075195,25.630505056677563,26.61812431039365,101438.5,124.0,937.0,-253.0,-20.375,-52.0625,-2.0,-39.8125,-48.375,10.3125,30.1875,12.5,-99.5,0.67431640625,-0.355224609375,-0.16876220703125,0.625,-88.0,-6.0,-94.0,212.0,944.0,-158.0,6372,6327.195907631037,818.7388815161786,
225,8.453230857849121,0.03791213035583496,26.3767820645851,26.61704190783807,101438.5,178.0,902.0,-260.0,-20.375,-52.0625,-2.0,-22.25,-52.0,8.25,32.4375,12.5,-98.875,0.664306640625,-0.3665771484375,-0.18206787109375,0.62542724609375,-34.0,-42.0,-112.0,212.0,945.0,-148.0,6386,6356.597953815519,797.1351229885639,
226,8.493699789047241,0.04046893119812012,24.71031407042577,26.607957146240388,101438.5,190.0,952.0,-398.0,-20.0,-51.6875,-2.375,-7.1875,-63.9375,-3.875,34.875,12.125,-99.0,0.65924072265625,-0.377197265625,-0.19525146484375,0.6204833984375,-15.0,6.0,-247.0,206.0,946.0,-150.0,6424,6390.298976907759,814.94899404625,
227,8.534412860870361,0.04071307182312012,24.562135825676524,26.598197638267287,101438.5,169.0,918.0,-384.0,-21.5,-51.6875,-1.5,-17.9375,-53.5625,1.8125,37.6875,11.75,-98.8125,0.65185546875,-0.3878173828125,-0.2105712890625,0.61669921875,-30.0,-29.0,-237.0,199.0,948.0,-147.0,6363,6376.64948845388,239.84420234552655,
228,8.574059009552002,0.039646148681640625,25.22313095352641,26.591839378058246,101438.5,118.0,881.0,-333.0,-21.875,-51.25,-1.875,-18.625,-60.3125,-1.625,40.25,11.4375,-98.625,0.64434814453125,-0.39825439453125,-0.22479248046875,0.6129150390625,-91.0,-81.0,-178.0,194.0,950.0,-144.0,6358,6367.32474422694,2.3224788006473176,
229,8.613802909851074,0.039743900299072266,25.161093714381696,26.585237948514802,101438.5,51.0,882.0,-288.0,-21.875,-51.25,-1.875,-20.4375,-78.625,-5.1875,43.75,10.8125,-98.25,0.634765625,-0.40985107421875,-0.24407958984375,0.60784912109375,-137.0,-58.0,-148.0,184.0,953.0,-139.0,6363,6365.16237211347,-26.042584295870437,
230,8.651664733886719,0.03786182403564453,26.411828417420217,26.584479065530502,101438.5,89.0,888.0,-332.0,-21.875,-49.75,-1.875,-9.5625,-94.25,5.75,47.75,10.375,-98.4375,0.624267578125,-0.42742919921875,-0.2647705078125,0.597900390625,-87.0,-65.0,-190.0,177.0,954.0,-142.0,6386,6375.5811860567355,124.56867094334001,
231,8.689477920532227,0.03781318664550781,26.44580075662043,26.583875592131243,101438.5,176.0,883.0,-354.0,-21.5,-52.375,-2.0,-18.5625,-101.5625,-3.4375,51.6875,10.0,-98.5625,0.61248779296875,-0.4454345703125,-0.28497314453125,0.58758544921875,-17.0,-62.0,-202.0,171.0,954.0,-144.0,6452,6413.790593028368,567.5235173718748,
232,8.729516744613647,0.0400388240814209,24.975758477982552,26.57649979801578,101432.5,38.0,940.0,-324.0,-21.875,-52.0625,-0.25,-21.6875,-126.9375,-18.4375,57.6875,8.6875,-98.4375,0.59918212890625,-0.462158203125,-0.31561279296875,0.57257080078125,-111.0,-16.0,-178.0,148.0,958.0,-142.0,6424,6418.895296514183,347.5086793676612,
233,8.768962860107422,0.039446115493774414,25.351038688659344,26.570987209899723,101432.5,61.0,970.0,-337.0,-21.375,-51.25,1.6875,-9.5625,-141.375,-7.5625,62.6875,7.75,-98.5625,0.587158203125,-0.47869873046875,-0.339599609375,0.5574951171875,-70.0,9.0,-192.0,132.0,960.0,-144.0,6400,6409.447648257092,54.00049144264207,
234,8.80502986907959,0.03606700897216797,27.72616938575848,26.575719046874802,101432.5,158.0,947.0,-412.0,-21.375,-51.25,1.6875,6.4375,-151.375,10.0,69.25,6.9375,-99.5,0.56976318359375,-0.50750732421875,-0.367431640625,0.53179931640625,39.0,-12.0,-250.0,118.0,960.0,-161.0,6367,6388.223824128546,-267.2274256794841,
235,8.844693899154663,0.03966403007507324,25.211759826403707,26.569602371706754,101432.5,168.0,871.0,-305.0,-21.0625,-52.0625,3.5625,-18.375,-138.0,9.5625,75.3125,6.4375,-99.6875,0.5477294921875,-0.53289794921875,-0.394287109375,0.510498046875,64.0,-106.0,-113.0,110.0,960.0,-164.0,6306,6347.1119120642725,-651.8655393240867,
236,8.881037712097168,0.03634381294250488,27.51499963919521,26.57347121480368,101432.5,126.0,820.0,-186.0,-20.6875,-51.25,5.5,-10.1875,-148.875,-1.9375,81.875,5.5625,-99.75,0.52520751953125,-0.55560302734375,-0.42242431640625,0.48681640625,21.0,-135.0,-18.0,95.0,961.0,-165.0,6367,6357.055956032136,-189.127586568087,
237,8.916668891906738,0.03563117980957031,28.06530699641347,26.579432619182967,101432.5,161.0,878.0,-249.0,-20.375,-50.875,7.375,18.9375,-161.25,5.75,87.1875,4.8125,-100.4375,0.50860595703125,-0.575927734375,-0.44140625,0.46343994140625,77.0,-82.0,-72.0,83.0,960.0,-177.0,6386,6371.527978016068,108.51707663490299,
238,8.956215858459473,0.039546966552734375,25.286389505160606,26.573723072473776,101432.5,179.0,903.0,-315.0,-20.375,-50.875,7.375,22.0625,-149.3125,16.4375,93.875,4.125,-101.875,0.48626708984375,-0.60552978515625,-0.46038818359375,0.42999267578125,108.0,-53.0,-113.0,71.0,956.0,-202.0,6311,6341.263989008034,-328.37496870107844,
239,8.992069721221924,0.03585386276245117,27.89099759279701,26.57897540940358,101432.5,168.0,867.0,-217.0,-20.0,-50.5625,10.25,-2.6875,-124.6875,21.3125,99.375,3.8125,-102.5,0.46185302734375,-0.62835693359375,-0.4775390625,0.40472412109375,91.0,-86.0,30.0,66.0,955.0,-212.0,6283,6312.131994504017,-570.4476786429934,
240,9.032644748687744,0.04057502746582031,24.64570112348987,26.570291058426385,101432.5,144.0,906.0,-160.0,-18.0625,-50.875,13.0,15.4375,-128.875,19.5625,104.8125,3.4375,-103.0625,0.4378662109375,-0.64910888671875,-0.492919921875,0.37939453125,92.0,-41.0,44.0,59.0,953.0,-221.0,6344,6328.065997252008,-88.87150460756871,
241,9.068886756896973,0.036242008209228516,27.592289980922306,26.5743752745305,101432.5,123.0,1011.0,-243.0,-18.375,-50.875,14.5625,17.375,-129.6875,14.9375,108.8125,3.0625,-103.8125,0.42144775390625,-0.66473388671875,-0.5015869140625,0.35894775390625,70.0,60.0,-9.0,53.0,950.0,-234.0,6363,6345.532998626004,196.54153120044901,
242,9.105655670166016,0.03676891326904297,27.196887563221374,26.576888997998736,101446.5,116.0,1077.0,-332.0,-18.375,-50.875,14.5625,14.0,-124.375,25.625,114.25,2.6875,-104.6875,0.396728515625,-0.68536376953125,-0.51287841796875,0.3314208984375,69.0,130.0,-82.0,46.0,947.0,-249.0,6405,6375.266499313002,502.60010312284976,
243,9.145309925079346,0.03965425491333008,25.21797477182814,26.57099671752149,101446.5,120.0,1022.0,-288.0,-16.5625,-50.1875,17.75,-7.5,-112.875,29.3125,118.9375,2.625,-104.8125,0.36962890625,-0.70098876953125,-0.525390625,0.30975341796875,68.0,66.0,-13.0,45.0,946.0,-251.0,6330,6352.633249656501,-34.08230785964008,
244,9.182492971420288,0.03718304634094238,26.893977186019224,26.572304575612396,101446.5,100.0,965.0,-263.0,-16.0625,-48.6875,20.5625,-5.75,-113.4375,23.5,123.6875,2.375,-104.75,0.343017578125,-0.7139892578125,-0.5382080078125,0.28802490234375,47.0,-2.0,-18.0,41.0,947.0,-249.0,6372,6362.3166248282505,113.17108154652803,
245,9.220632791519165,0.03813982009887695,26.21931612177283,26.570844489690874,101446.5,30.0,868.0,-188.0,-14.6875,-49.0625,20.0,-21.25,-105.0,14.75,127.0625,2.0625,-104.4375,0.325439453125,-0.7203369140625,-0.5484619140625,0.2728271484375,-4.0,-80.0,55.0,35.0,948.0,-244.0,6400,6381.158312414125,303.59362231413047,
246,9.260652780532837,0.040019989013671875,24.987513106472214,26.564002109778457,101446.5,56.0,802.0,-136.0,-14.1875,-49.875,22.0625,-9.125,-100.75,26.1875,132.125,1.875,-103.75,0.294189453125,-0.7298583984375,-0.56396484375,0.2503662109375,23.0,-148.0,97.0,32.0,951.0,-233.0,6363,6372.079156207063,38.364043797222294,
247,9.304834842681885,0.04418206214904785,22.633619875561887,26.545339511776703,101446.5,191.0,807.0,-151.0,-14.1875,-49.875,22.0625,1.3125,-98.9375,27.75,135.9375,2.0,-103.9375,0.268310546875,-0.74053955078125,-0.5711669921875,0.2310791015625,156.0,-143.0,84.0,35.0,951.0,-236.0,6339,6355.539578103531,-167.99323995013611,
248,9.338538885116577,0.03370404243469238,29.670031478796023,26.556616945211136,101446.5,188.0,906.0,-216.0,-13.875,-49.5,22.0625,11.1875,-89.0625,17.8125,138.5,1.9375,-104.3125,0.24847412109375,-0.75048828125,-0.57440185546875,0.21240234375,154.0,-21.0,21.0,32.0,948.0,-245.0,6367,6361.269789051766,1.0111496320592437,
249,9.379233837127686,0.0406949520111084,24.573072348802192,26.548010671653564,101446.5,195.0,1002.0,-233.0,-13.0625,-48.0,22.0,8.875,-76.1875,18.9375,141.4375,1.8125,-104.8125,0.2362060546875,-0.75634765625,-0.57586669921875,0.20123291015625,163.0,54.0,16.0,31.0,947.0,-250.0,6358,6359.634894525883,-19.581615917554487,
250,9.419814825057983,0.04058098793029785,24.642081206046683,26.539799841390316,101446.5,196.0,1049.0,-295.0,-10.375,-48.0,24.75,11.6875,-62.8125,28.5,144.0625,2.0,-105.375,0.21722412109375,-0.76531982421875,-0.57635498046875,0.18682861328125,161.0,104.0,-35.0,34.0,944.0,-260.0,6334,6346.817447262942,-167.7150961125916,
251,9.458652973175049,0.03883814811706543,25.747880588585566,26.53654814399488,101465.0,106.0,1005.0,-245.0,-10.375,-48.0,24.75,-11.25,-48.875,20.4375,145.8125,2.3125,-105.3125,0.20062255859375,-0.76947021484375,-0.57965087890625,0.177978515625,65.0,61.0,14.0,40.0,944.0,-259.0,6344,6345.408723631471,-101.99337197901045,
252,9.499674797058105,0.04102182388305664,24.37726813051413,26.52722386644649,101465.0,46.0,935.0,-154.0,-11.5625,-48.375,24.75,-18.875,-48.3125,19.25,147.25,2.5625,-104.6875,0.1832275390625,-0.76959228515625,-0.58587646484375,0.170166015625,1.0,-12.0,95.0,44.0,947.0,-249.0,6320,6332.704361815735,-205.8455031941345,
253,9.537181854248047,0.037507057189941406,26.66164916473849,26.527752523383924,101465.0,60.0,930.0,-166.0,-11.5,-48.0,24.75,-11.875,-52.875,21.875,148.6875,2.875,-104.25,0.1773681640625,-0.76959228515625,-0.59002685546875,0.16778564453125,0.0,-24.0,101.0,47.0,948.0,-242.0,6288,6310.3521809078675,-400.8957543132315,
254,9.576721906661987,0.03954005241394043,25.29081118889552,26.522645480945467,101465.0,141.0,979.0,-249.0,-10.375,-48.375,24.0,-3.5625,-51.75,27.875,150.125,3.3125,-104.125,0.15728759765625,-0.77301025390625,-0.5938720703125,0.158203125,84.0,29.0,-9.0,56.0,949.0,-239.0,6288,6299.176090453933,-341.7740739068494,
255,9.613729000091553,0.03700709342956543,27.021846552290633,26.524567105809993,101465.0,173.0,974.0,-240.0,-11.0625,-47.5625,24.75,-15.25,-39.875,20.875,151.1875,3.6875,-103.9375,0.14453125,-0.77435302734375,-0.5966796875,0.15325927734375,108.0,27.0,-4.0,63.0,949.0,-236.0,6279,6289.088045226967,-307.185842021255,
256,9.650721788406372,0.036992788314819336,27.032295902912495,26.52651331297712,101465.0,141.0,953.0,-176.0,-11.0625,-47.5625,24.75,-18.5625,-31.125,6.75,152.375,4.0,-103.25,0.13177490234375,-0.77288818359375,-0.602783203125,0.14788818359375,73.0,1.0,48.0,68.0,952.0,-227.0,6292,6290.544022613483,-133.91371524049345,
257,9.690895795822144,0.040174007415771484,24.891716418796214,26.5197361951612,101465.0,151.0,1014.0,-168.0,-11.0625,-48.0,24.375,-18.5625,-33.125,-3.4375,153.25,3.8125,-102.75,0.12835693359375,-0.7705078125,-0.607421875,0.1444091796875,85.0,60.0,47.0,65.0,954.0,-216.0,6283,6286.772011306742,-113.90277550819991,
258,9.727324962615967,0.03642916679382324,27.450531758238164,26.523222056582362,101465.0,61.0,1029.0,-306.0,-9.875,-48.0,24.375,4.875,-40.6875,2.1875,155.375,3.1875,-103.0,0.1220703125,-0.77301025390625,-0.6082763671875,0.13262939453125,6.0,75.0,-86.0,55.0,953.0,-220.0,6260,6273.38600565337,-240.67787440601197,
259,9.768758058547974,0.041433095932006836,24.135295166961097,26.5130939314611,101465.0,167.0,873.0,-142.0,-8.75,-48.0,24.75,-33.4375,-12.4375,19.5625,155.6875,3.6875,-102.0625,0.11297607421875,-0.76910400390625,-0.614990234375,0.1324462890625,103.0,-83.0,61.0,63.0,956.0,-204.0,6251,6262.193002826685,-255.4121507163444,
260,9.804627895355225,0.03586983680725098,27.878576793464894,26.518089495591216,101465.0,188.0,857.0,-195.0,-8.75,-48.0,24.75,-1.625,-27.375,6.0625,156.3125,3.9375,-101.625,0.10455322265625,-0.7681884765625,-0.6182861328125,0.12933349609375,120.0,-100.0,2.0,68.0,958.0,-198.0,6162,6212.096501413343,-826.0156562260693,
261,9.843571901321411,0.03894400596618652,25.677892532890912,26.514765434380898,101457.5,185.0,868.0,-185.0,-8.75,-48.375,22.375,-13.375,-15.6875,9.5,156.875,4.0,-101.375,0.0997314453125,-0.76715087890625,-0.620849609375,0.12677001953125,116.0,-90.0,7.0,69.0,958.0,-193.0,6143,6177.548250706672,-856.5709625356678,
262,9.879297733306885,0.03572583198547363,27.99095064900397,26.520103662500013,101457.5,249.0,890.0,-207.0,-9.1875,-48.375,23.1875,-2.9375,-18.25,9.5625,157.0,4.25,-101.1875,0.095947265625,-0.7667236328125,-0.6220703125,0.12640380859375,176.0,-69.0,-17.0,73.0,959.0,-190.0,6185,6181.274125353336,-376.1400945882586,
263,9.918638706207275,0.039340972900390625,25.418791816154368,26.51573545424228,101457.5,198.0,925.0,-243.0,-8.0625,-48.0,23.1875,-3.5625,-16.9375,-0.4375,157.8125,4.1875,-101.25,0.091552734375,-0.7677001953125,-0.6224365234375,0.12176513671875,126.0,-33.0,-51.0,71.0,959.0,-191.0,6218,6199.6370626766675,45.311793183299244,
264,9.957511901855469,0.03887319564819336,25.724666658489017,26.512647195611848,101457.5,206.0,984.0,-285.0,-8.0625,-48.0,23.1875,9.8125,-19.125,1.875,158.5,4.0625,-101.25,0.0880126953125,-0.76806640625,-0.62322998046875,0.1181640625,135.0,25.0,-93.0,70.0,959.0,-191.0,6147,6173.318531338334,-315.86182621816647,
265,9.99868893623352,0.04117703437805176,24.285381769334546,26.50347477454627,101457.5,194.0,952.0,-298.0,-8.375,-48.6875,23.6875,-3.5625,-7.5,2.3125,159.0,4.125,-101.5625,0.084228515625,-0.7701416015625,-0.62176513671875,0.11492919921875,123.0,-5.0,-102.0,70.0,958.0,-196.0,6105,6139.159265669166,-572.716316977009,
266,10.03670883178711,0.03801989555358887,26.302018599459448,26.50271164164446,101457.5,140.0,910.0,-192.0,-8.0625,-47.5625,23.6875,-10.1875,-6.25,-1.3125,159.25,4.0625,-101.125,0.0828857421875,-0.7677001953125,-0.62506103515625,0.1142578125,69.0,-49.0,-4.0,70.0,959.0,-188.0,6115,6127.079632834583,-445.2175222334288,
267,10.074983835220337,0.03827500343322754,26.126712222104562,26.501283214630664,101457.5,129.0,888.0,-144.0,-8.75,-48.375,22.75,-2.8125,-12.1875,1.625,159.625,4.0,-101.0,0.08184814453125,-0.76739501953125,-0.62591552734375,0.1123046875,60.0,-71.0,43.0,68.0,960.0,-187.0,6110,6118.539816417291,-334.1674240988112,
268,10.110667705535889,0.03568387031555176,28.02386599763478,26.506656909836142,101457.5,175.0,889.0,-136.0,-8.75,-48.375,22.75,3.25,-13.4375,6.75,159.9375,4.0625,-101.0625,0.07891845703125,-0.76788330078125,-0.62603759765625,0.110595703125,105.0,-70.0,51.0,69.0,959.0,-188.0,6063,6090.769908208646,-556.1938052522564,
269,10.147303819656372,0.0366361141204834,27.295471258533283,26.50950486758062,101457.5,198.0,901.0,-170.0,-8.0625,-48.6875,22.75,13.0625,-15.0,2.9375,160.375,4.0625,-101.5625,0.07537841796875,-0.77093505859375,-0.62322998046875,0.10760498046875,128.0,-57.0,25.0,70.0,958.0,-196.0,6068,6079.384954104323,-433.4757463932598,
270,10.181088924407959,0.033785104751586914,29.598842666102115,26.519756580527144,101457.5,160.0,926.0,-142.0,-8.0625,-47.1875,23.6875,6.6875,-14.5625,-7.0,160.625,4.125,-101.6875,0.07330322265625,-0.7720947265625,-0.622314453125,0.1060791015625,89.0,-31.0,56.0,71.0,957.0,-199.0,6030,6054.692477052162,-582.1722448482542,
271,10.219146013259888,0.03805708885192871,26.276313563834787,26.518849975170433,101452.0,117.0,929.0,-137.0,-8.0625,-47.1875,24.375,12.375,-19.6875,-4.125,161.625,3.6875,-102.1875,0.07220458984375,-0.77484130859375,-0.6199951171875,0.0999755859375,52.0,-28.0,69.0,64.0,956.0,-207.0,6002,6028.346238526081,-637.2271347935705,
272,10.256670951843262,0.03752493858337402,26.648944348787413,26.519325936952082,101452.0,138.0,938.0,-194.0,-8.0625,-47.1875,24.375,18.1875,-17.8125,4.5625,162.5625,3.5625,-102.875,0.0682373046875,-0.779052734375,-0.6160888671875,0.09442138671875,76.0,-15.0,24.0,61.0,953.0,-218.0,5974,6001.1731192630405,-680.6810389086495,
273,10.296653747558594,0.03998279571533203,25.010757304710793,26.5134680346739,101452.0,136.0,902.0,-81.0,-6.5625,-47.1875,24.75,-9.125,-4.875,1.625,162.6875,3.6875,-102.8125,0.06585693359375,-0.7786865234375,-0.6168212890625,0.09381103515625,72.0,-51.0,135.0,63.0,954.0,-217.0,5993,5997.08655963152,-391.44449503192084,
274,10.333318948745728,0.03666520118713379,27.273817342393603,26.516165944268902,101452.0,136.0,977.0,-130.0,-7.0,-46.5,24.375,11.875,-19.75,-3.6875,163.4375,3.5,-103.0625,0.063720703125,-0.7802734375,-0.61572265625,0.0894775390625,76.0,24.0,91.0,59.0,953.0,-221.0,5936,5966.54327981576,-612.2381648822866,
275,10.372310638427734,0.038991689682006836,25.646490525427563,26.51289665208921,101452.0,82.0,1025.0,-106.0,-6.5625,-46.875,24.375,-1.0625,-5.5625,-5.9375,163.9375,3.25,-103.125,0.06341552734375,-0.78082275390625,-0.61541748046875,0.08660888671875,26.0,72.0,116.0,54.0,953.0,-223.0,5932,5949.27163990788,-527.597557069163,
276,10.408076763153076,0.0357661247253418,27.9594171210687,26.517867448585875,101452.0,147.0,1071.0,-177.0,-6.5625,-46.875,24.375,13.875,-22.3125,9.8125,164.625,3.1875,-103.5625,0.05963134765625,-0.78338623046875,-0.6131591796875,0.0826416015625,92.0,119.0,19.0,55.0,951.0,-229.0,5908,5928.63581995394,-552.2815273983217,
277,10.446348667144775,0.03827190399169922,26.128828088011762,26.51644213936719,101452.0,171.0,1059.0,-206.0,-6.5625,-46.0625,24.0,-13.6875,-7.0,4.625,164.8125,3.375,-103.5625,0.055908203125,-0.78363037109375,-0.61334228515625,0.08148193359375,110.0,97.0,65.0,57.0,951.0,-229.0,5829,5878.8179099769695,-926.9825664453142,
278,10.4824378490448,0.036089181900024414,27.709134631265318,26.520548368940002,101452.0,194.0,1029.0,-122.0,-5.5,-45.375,26.375,-11.3125,-8.625,3.4375,164.875,3.5625,-103.0625,0.05291748046875,-0.7811279296875,-0.61676025390625,0.081787109375,134.0,82.0,82.0,61.0,953.0,-221.0,5833,5855.908954988485,-780.8849422414179,
279,10.523789882659912,0.041352033615112305,24.18260754253559,26.511361696769463,101452.0,180.0,1034.0,-133.0,-6.25,-45.6875,25.25,-13.6875,-11.6875,-6.3125,165.3125,3.375,-102.75,0.0517578125,-0.779541015625,-0.619140625,0.07952880859375,122.0,79.0,83.0,58.0,954.0,-216.0,5800,5827.954477494242,-728.4485502706625,
280,10.565414905548096,0.041625022888183594,24.024010814030746,26.50156217272327,101452.0,121.0,1060.0,-143.0,-6.25,-45.6875,25.25,-2.5625,-17.0625,-6.1875,166.5,2.875,-102.375,0.0506591796875,-0.7777099609375,-0.622314453125,0.0733642578125,71.0,104.0,67.0,50.0,956.0,-210.0,5772,5799.977238747121,-700.287018239111,
281,10.60503077507019,0.03961586952209473,25.24240947033299,26.496858515541664,101450.0,162.0,1132.0,-263.0,-5.0625,-46.0625,24.875,25.0625,-38.5,-8.5,168.375,2.375,-102.875,0.04534912109375,-0.7806396484375,-0.6201171875,0.0631103515625,99.0,200.0,-110.0,41.0,955.0,-218.0,5753,5776.48861937356,-646.5981831796678,
282,10.64318585395813,0.03815507888793945,26.208830623492506,26.495825955639596,101450.0,38.0,1120.0,-474.0,-5.0625,-45.375,24.5,13.8125,-43.9375,-2.5625,170.875,1.6875,-104.0,0.03826904296875,-0.787109375,-0.6136474609375,0.0489501953125,10.0,135.0,-212.0,29.0,951.0,-237.0,5636,5706.24430968678,-1243.8096990123204,
283,10.680257797241211,0.037071943283081055,26.97457730672515,26.497487736026464,101450.0,-16.0,923.0,-322.0,-3.5625,-44.25,26.5,-37.0,-18.3125,18.3125,171.75,1.875,-103.0,0.0294189453125,-0.78204345703125,-0.62091064453125,0.04461669921875,-38.0,-99.0,-66.0,32.0,954.0,-220.0,5660,5683.12215484339,-933.7600261667133,
284,10.721904754638672,0.04164695739746094,24.0113579116098,26.487830893772085,101450.0,95.0,719.0,-157.0,-4.0,-44.5625,27.25,-42.3125,-10.3125,23.3125,171.375,2.5,-101.875,0.022705078125,-0.776123046875,-0.62835693359375,0.047119140625,51.0,-239.0,44.0,43.0,958.0,-201.0,5735,5709.061077421695,-155.4656361487452,
285,10.761570692062378,0.039665937423706055,25.210547511285018,26.483122971093152,101450.0,31.0,875.0,-230.0,-4.0,-44.5625,27.25,-13.4375,-28.0625,-17.25,172.25,2.375,-100.75,0.01849365234375,-0.770263671875,-0.63604736328125,0.0428466796875,-10.0,-86.0,-47.0,41.0,962.0,-183.0,5636,5672.530538710847,-538.2102589657001,
286,10.804697751998901,0.04312705993652344,23.187298217681658,26.46996765338384,101450.0,-42.0,932.0,-211.0,-4.0,-46.0625,24.375,-19.5,-11.375,-14.0625,174.125,1.4375,-100.0625,0.0189208984375,-0.766357421875,-0.64129638671875,0.03265380859375,-70.0,-44.0,-22.0,25.0,965.0,-172.0,5664,5668.265269355424,-318.5551657443241,
287,10.845103740692139,0.040405988693237305,24.748806608644344,26.463555062469467,101450.0,59.0,799.0,-136.0,-1.75,-45.6875,24.375,-7.5,5.8125,11.8125,173.8125,1.8125,-99.75,0.01629638671875,-0.7645263671875,-0.64349365234375,0.03460693359375,32.0,-184.0,46.0,31.0,965.0,-166.0,5589,5628.632634677711,-649.7077883870386,
288,10.880988836288452,0.03588509559631348,27.86672247579943,26.468182656295962,101450.0,48.0,781.0,-75.0,-1.875,-46.0625,24.875,-7.3125,4.125,-7.8125,173.8125,1.625,-99.375,0.0184326171875,-0.7625732421875,-0.645751953125,0.0345458984375,14.0,-169.0,67.0,28.0,967.0,-160.0,5547,5587.816317338856,-893.5623880765454,
289,10.917405843734741,0.03641700744628906,27.459697271251244,26.471490034956496,101450.0,-2.0,850.0,-123.0,-1.875,-46.5,22.0625,3.75,-10.25,-16.6875,174.6875,1.3125,-99.4375,0.0196533203125,-0.7628173828125,-0.64556884765625,0.03167724609375,-4.0,-118.0,38.0,22.0,967.0,-161.0,5566,5576.908158669428,-596.5485614628982,
290,10.953661918640137,0.03625607490539551,27.581584675377623,26.475164392877538,101450.0,24.0,866.0,-99.0,-1.875,-46.5,22.0625,-5.8125,-2.625,-3.5,175.125,0.875,-99.375,0.020263671875,-0.76239013671875,-0.646240234375,0.02728271484375,15.0,-90.0,73.0,15.0,967.0,-160.0,5556,5566.454079334714,-442.444317918216,
291,10.991849899291992,0.03818798065185547,26.186249781484904,26.474160643218383,101445.75,21.0,918.0,-107.0,-1.875,-46.0625,22.875,4.3125,-10.375,2.875,175.4375,0.875,-99.5,0.017822265625,-0.76312255859375,-0.6455078125,0.02545166015625,9.0,-30.0,40.0,15.0,967.0,-162.0,5496,5531.2270396673575,-682.4541888549467,
292,11.030913829803467,0.03906393051147461,25.59906253433102,26.471061645959974,101445.75,49.0,974.0,-122.0,-1.875,-45.6875,23.25,4.5,-12.75,12.6875,175.6875,1.0625,-99.6875,0.013671875,-0.76422119140625,-0.64434814453125,0.02423095703125,30.0,7.0,42.0,19.0,966.0,-165.0,5496,5513.613519833679,-566.6718922634846,
293,11.069470882415771,0.03855705261230469,25.935592381894633,26.469196505628865,101445.75,115.0,995.0,-96.0,-1.875,-46.5,23.75,-5.3125,-5.5,14.6875,175.3125,1.6875,-99.625,0.0081787109375,-0.7640380859375,-0.64459228515625,0.02618408203125,86.0,29.0,68.0,28.0,966.0,-164.0,5430,5471.806759916839,-825.4774881371868,
294,11.109148979187012,0.039678096771240234,25.202821742317724,26.46467344625668,101445.75,75.0,1055.0,-95.0,-1.875,-46.5,23.75,-12.5,-4.375,-2.1875,175.375,1.8125,-99.3125,0.00567626953125,-0.76220703125,-0.64678955078125,0.0260009765625,43.0,88.0,63.0,31.0,967.0,-158.0,5384,5427.9033799584195,-965.9832735572385,
295,11.145346879959106,0.03619790077209473,27.625911411164168,26.468444919417564,101445.75,27.0,1092.0,-106.0,-2.5625,-46.0625,23.5625,-14.4375,-4.5,1.375,175.5625,1.75,-98.875,0.0048828125,-0.75927734375,-0.6502685546875,0.02496337890625,10.0,131.0,18.0,30.0,968.0,-150.0,5365,5396.45168997921,-917.4324373271431,
296,11.183192729949951,0.03784584999084473,26.422976369718466,26.468291046015505,101445.75,50.0,1054.0,-89.0,-1.875,-45.6875,23.6875,-8.5625,-6.5,11.125,175.5625,2.0,-98.5625,0.001708984375,-0.758056640625,-0.6517333984375,0.02496337890625,16.0,85.0,56.0,34.0,969.0,-146.0,5374,5385.225844989605,-607.0263371087915,
297,11.220977783203125,0.03778505325317383,26.465491349175302,26.468281618432968,101445.75,145.0,1084.0,-94.0,-1.875,-45.6875,22.5,13.875,-8.75,16.0,175.125,2.625,-98.375,-0.0032958984375,-0.75714111328125,-0.65264892578125,0.0277099609375,99.0,115.0,49.0,45.0,969.0,-143.0,5407,5396.112922494803,-159.44724078859514,
298,11.260153770446777,0.039175987243652344,25.52584045375983,26.465002705569272,101445.75,189.0,1229.0,-414.0,-1.875,-45.6875,22.5,36.4375,-13.75,13.6875,175.125,3.1875,-99.75,-0.010986328125,-0.76483154296875,-0.6435546875,0.02728271484375,134.0,264.0,-248.0,54.0,964.0,-166.0,5374,5385.056461247401,-220.83635328647574,
299,11.30361294746399,0.043459177017211914,23.010099790982053,26.451719586442657,101445.75,176.0,912.0,-192.0,-1.5,-46.0625,23.6875,-37.9375,28.625,9.5,174.75,3.625,-100.125,-0.01513671875,-0.7667236328125,-0.64117431640625,0.02923583984375,113.0,-51.0,-20.0,62.0,963.0,-172.0,5318,5351.5282306237,-496.16214287644164,
300,11.349640846252441,0.04602789878845215,21.72595374375178,26.43255448026424,101444.75,179.0,876.0,-195.0,-2.1875,-45.6875,24.0,3.75,6.5625,1.625,173.75,3.9375,-99.0625,-0.01190185546875,-0.7608642578125,-0.6478271484375,0.03509521484375,111.0,-89.0,-40.0,67.0,965.0,-155.0,5149,5250.26411531185,-1348.110814021823,
301,11.389028787612915,0.03938794136047363,25.388480978178627,26.428943645078636,101444.75,109.0,887.0,-246.0,-3.0,-45.0,22.75,-3.1875,12.0625,-2.75,173.5625,3.875,-99.375,-0.01019287109375,-0.762451171875,-0.64593505859375,0.0361328125,42.0,-77.0,-86.0,66.0,965.0,-159.0,5023,5136.632057655925,-2116.528074165293,
302,11.42681884765625,0.03779006004333496,26.46198494665716,26.42905291720303,101444.75,110.0,875.0,-221.0,-3.375,-46.875,24.0,-1.125,14.1875,3.1875,172.8125,4.0625,-99.125,-0.00762939453125,-0.760986328125,-0.6474609375,0.04052734375,40.0,-90.0,-66.0,70.0,965.0,-155.0,5055,5095.816028827962,-1598.3006072965786,
303,11.46372675895691,0.03690791130065918,27.094461993630613,26.431195227438423,101444.75,76.0,825.0,-190.0,-2.5625,-45.6875,22.5,-7.1875,20.4375,0.1875,172.0625,4.3125,-99.125,-0.0064697265625,-0.76123046875,-0.6468505859375,0.04461669921875,2.0,-139.0,-34.0,74.0,965.0,-156.0,5032,5063.908014413981,-1231.4155455642108,
304,11.506646633148193,0.04291987419128418,23.29922952577228,26.41951297298388,101444.75,62.0,848.0,-176.0,-4.0625,-46.0625,22.5,1.625,8.375,-6.25,171.375,4.3125,-98.9375,-0.0015869140625,-0.76007080078125,-0.64801025390625,0.048583984375,-11.0,-117.0,-23.0,74.0,965.0,-152.0,4990,5026.95400720699,-1046.207720688461,
305,11.554726839065552,0.0480802059173584,20.798579808889087,26.3961237896876,101444.75,54.0,871.0,-210.0,-4.0625,-46.0625,22.5,0.6875,3.0,-4.25,171.375,4.125,-99.0,0.0010986328125,-0.76043701171875,-0.6475830078125,0.04864501953125,-16.0,-94.0,-57.0,71.0,965.0,-153.0,5056,5041.477003603495,-372.0750105357734,
306,11.59691596031189,0.04218912124633789,23.702792816212124,26.386325558210768,101444.75,90.0,838.0,-135.0,-3.375,-46.875,21.6875,-11.9375,10.5,0.125,171.1875,4.1875,-98.6875,0.00152587890625,-0.75872802734375,-0.6495361328125,0.0498046875,18.0,-127.0,12.0,72.0,966.0,-148.0,4995,5018.238501801748,-461.44620205088427,
307,11.637327909469604,0.040411949157714844,24.74515634218289,26.380626410826313,101444.75,95.0,892.0,-141.0,-3.6875,-46.875,22.5,1.3125,-1.0625,-0.5625,171.25,4.1875,-98.5625,0.00152587890625,-0.7579345703125,-0.65045166015625,0.0496826171875,24.0,-74.0,4.0,71.0,967.0,-146.0,4939,4978.619250900874,-720.9153798765826,
308,11.677881717681885,0.04055380821228027,24.65859666656868,26.374646313949775,101444.75,214.0,942.0,-129.0,-3.6875,-46.0625,22.0,1.9375,2.875,12.9375,170.8125,4.5625,-98.5,-0.0008544921875,-0.7574462890625,-0.65081787109375,0.05194091796875,136.0,-24.0,14.0,78.0,966.0,-144.0,4817,4897.809625450437,-1356.7836703176977,
309,11.717047691345215,0.03916597366333008,25.532366655709364,26.371830868986095,101444.75,257.0,1079.0,-281.0,-4.875,-46.875,22.75,12.8125,-13.1875,-19.875,171.3125,4.3125,-99.0,-0.00091552734375,-0.76043701171875,-0.64752197265625,0.0489501953125,183.0,113.0,-128.0,74.0,965.0,-153.0,4849,4873.404812725219,-989.948148490944,
310,11.755076885223389,0.03802919387817383,26.295587626797737,26.371584212237916,101439.5,54.0,1163.0,-258.0,-4.875,-46.875,22.75,-13.375,-8.5,-26.6875,172.9375,3.125,-98.875,0.00445556640625,-0.759765625,-0.64892578125,0.0400390625,0.0,196.0,-106.0,53.0,967.0,-151.0,4681,4777.2024063626095,-1759.8234774538732,
311,11.798050880432129,0.042973995208740234,23.269886710384696,26.36028638559397,101439.5,22.0,1199.0,-279.0,-4.875,-45.6875,22.5,21.4375,-20.75,-11.375,174.1875,2.375,-99.125,0.00555419921875,-0.7613525390625,-0.6474609375,0.03265380859375,-18.0,232.0,-122.0,41.0,967.0,-156.0,4569,4673.101203181304,-2091.1233409487922,
312,11.834160804748535,0.03610992431640625,27.693217832241707,26.36435359867748,101439.5,-41.0,1162.0,-334.0,-1.875,-46.875,24.0,22.625,-34.75,1.5,176.0,2.0625,-100.0625,-0.0013427734375,-0.766357421875,-0.64202880859375,0.02239990234375,-77.0,197.0,-162.0,35.0,964.0,-171.0,4550,4611.550601590652,-1897.8287792521226,
313,11.870153903961182,0.035993099212646484,27.783103480253832,26.368655582093925,101439.5,-50.0,972.0,-308.0,-2.1875,-45.6875,22.75,17.0625,-19.0625,37.5625,176.25,2.5625,-100.75,-0.01080322265625,-0.77020263671875,-0.63739013671875,0.02069091796875,-94.0,10.0,-125.0,44.0,962.0,-183.0,4568,4589.775300795326,-1251.4071072811603,
314,11.906853914260864,0.03670001029968262,27.24794875626092,26.37136579159013,101439.5,172.0,803.0,-132.0,-2.1875,-45.6875,22.75,3.4375,1.375,31.5625,174.5625,4.1875,-100.6875,-0.0213623046875,-0.76947021484375,-0.63763427734375,0.030029296875,100.0,-157.0,48.0,72.0,961.0,-181.0,4541,4565.387650397663,-957.9602778011507,
315,11.945622682571411,0.038768768310546875,25.793958476827708,26.36949185240741,101439.5,85.0,911.0,-339.0,-3.0,-44.5625,24.75,15.875,-26.0,-30.375,175.75,3.6875,-101.625,-0.02294921875,-0.77459716796875,-0.631591796875,0.02325439453125,22.0,-46.0,-142.0,63.0,958.0,-197.0,4569,4567.193825198831,-455.68593998895625,
316,11.9877450466156,0.04212236404418945,23.740357947405958,26.360253639963226,101439.5,-62.0,933.0,-224.0,-3.6875,-44.1875,24.0,-33.1875,-1.4375,-28.125,177.5625,2.3125,-100.625,-0.01611328125,-0.76934814453125,-0.63848876953125,0.0133056640625,-102.0,-29.0,-44.0,40.0,963.0,-180.0,4577,4572.096912599416,-169.64244502582832,
317,12.026359796524048,0.038614749908447266,25.896839999506057,26.358765691645264,101439.5,-73.0,843.0,-151.0,-2.1875,-44.5625,24.375,-4.8125,0.875,5.9375,177.75,2.1875,-100.1875,-0.01519775390625,-0.7672119140625,-0.64105224609375,0.0125732421875,-34.0,-170.0,16.0,39.0,964.0,-173.0,4596,4584.048456299708,69.93238496386844,
318,12.064321756362915,0.03796195983886719,26.342159473446213,26.358713438016668,101439.5,61.0,744.0,-131.0,-2.1875,-44.5625,24.375,-8.625,0.0,5.125,177.375,2.5625,-99.9375,-0.01776123046875,-0.7657470703125,-0.64276123046875,0.0146484375,17.0,-219.0,38.0,44.0,964.0,-169.0,4522,4553.024228149854,-373.6563902500827,
319,12.104368925094604,0.04004716873168945,24.970554265642676,26.354120728975285,101440.5,67.0,760.0,-89.0,-2.5625,-45.0,25.1875,-9.1875,-5.1875,-1.0625,177.6875,2.4375,-99.625,-0.0181884765625,-0.7637939453125,-0.64508056640625,0.01287841796875,25.0,-205.0,74.0,42.0,965.0,-164.0,4428,4490.512114074927,-967.3092635090464,
320,12.14140796661377,0.03703904151916504,26.998538811609688,26.356086615319278,101440.5,95.0,766.0,-40.0,-2.5625,-45.0,23.6875,1.9375,-3.5625,11.6875,177.375,2.75,-99.3125,-0.0201416015625,-0.76202392578125,-0.6470947265625,0.0146484375,67.0,-174.0,112.0,47.0,966.0,-159.0,4451,4470.7560570374635,-750.3469680996898,
321,12.187144994735718,0.04573702812194824,21.86412281387651,26.339228764296898,101440.5,150.0,913.0,-182.0,-2.5625,-43.5625,22.75,27.4375,-15.125,6.4375,177.4375,3.0625,-100.3125,-0.02508544921875,-0.767578125,-0.64031982421875,0.01422119140625,87.0,-21.0,-41.0,52.0,963.0,-176.0,4236,4353.378028518731,-1658.3572996419753,
322,12.225955724716187,0.03881072998046875,25.766070375466878,26.33740929954782,101440.5,115.0,1001.0,-185.0,-2.5625,-44.25,23.6875,-5.8125,-2.4375,1.9375,177.5625,3.125,-100.5,-0.02655029296875,-0.76861572265625,-0.6390380859375,0.013427734375,61.0,38.0,-6.0,53.0,962.0,-179.0,4226,4289.689014259366,-1649.6864615964519,
323,12.262418985366821,0.036463260650634766,27.424864977964926,26.34064293394699,101440.5,124.0,1025.0,-99.0,-2.5625,-44.25,23.6875,-9.5,6.125,6.5,177.25,3.25,-100.0,-0.026611328125,-0.76580810546875,-0.642333984375,0.015380859375,67.0,61.0,70.0,56.0,963.0,-170.0,4226,4257.844507129683,-1261.5088849589224,
324,12.298962831497192,0.036543846130371094,27.36438842349748,26.343684783748422,101440.5,138.0,1118.0,-212.0,-2.5625,-44.25,24.0,-6.4375,8.0625,0.625,176.875,3.4375,-100.0625,-0.0269775390625,-0.765869140625,-0.6422119140625,0.0172119140625,57.0,144.0,-34.0,59.0,963.0,-171.0,4170,4213.922253564841,-1231.707245971295,
325,12.343714714050293,0.044751882553100586,22.345428682546363,26.329189188896855,101440.5,87.0,1082.0,-144.0,-3.375,-44.5625,22.75,-28.1875,15.375,-1.4375,176.1875,3.5625,-99.0,-0.02288818359375,-0.760009765625,-0.649169921875,0.02154541015625,13.0,112.0,18.0,61.0,966.0,-153.0,4198,4205.96112678242,-704.8010183602984,
326,12.381308794021606,0.03759407997131348,26.599932775667327,26.330011263220506,101440.5,39.0,1078.0,-92.0,-3.0,-44.6875,23.1875,-21.0,9.25,-1.1875,176.0,3.5625,-98.5,-0.021484375,-0.75738525390625,-0.6522216796875,0.022705078125,2.0,106.0,53.0,61.0,967.0,-145.0,4278,4241.98056339121,126.65678702546154,
327,12.415489673614502,0.03418087959289551,29.256122484567364,26.338067091702634,101440.5,132.0,1117.0,-159.0,-3.0,-44.6875,23.1875,19.4375,2.125,25.6875,175.375,4.0625,-98.75,-0.02410888671875,-0.75872802734375,-0.65045166015625,0.02618408203125,63.0,151.0,-10.0,69.0,966.0,-149.0,4212,4226.9902816956055,-155.95036516965752,
328,12.456429719924927,0.040940046310424805,24.425961622455812,26.331782651600495,101440.5,259.0,1269.0,-476.0,-2.5625,-44.6875,21.6875,41.875,-18.0625,7.4375,175.0,4.75,-100.625,-0.03240966796875,-0.76885986328125,-0.637939453125,0.02764892578125,133.0,229.0,-313.0,82.0,960.0,-180.0,4198,4212.495140847803,-255.00405961508966,
329,12.490764856338501,0.03433513641357422,29.124684054106602,26.339459895688236,101442.75,137.0,914.0,-297.0,-4.5,-44.25,22.0625,-50.0,42.3125,7.875,173.375,5.25,-99.4375,-0.02777099609375,-0.76251220703125,-0.64532470703125,0.037109375,39.0,-106.0,-27.0,90.0,963.0,-161.0,4100,4156.247570423901,-946.5983885111641,
330,12.529489755630493,0.03872489929199219,25.823178840565433,26.337864225612606,101442.75,160.0,796.0,-17.0,-4.5,-43.5625,22.75,-38.4375,33.0,-0.0625,172.5,5.4375,-98.375,-0.0234375,-0.756591796875,-0.652099609375,0.04254150390625,67.0,-169.0,125.0,93.0,965.0,-143.0,3954,4055.1237852119507,-1778.9679895371464,
331,12.567375898361206,0.03788614273071289,26.394874957522056,26.33803609257543,101442.75,148.0,870.0,-252.0,-4.5,-43.5625,22.75,30.125,-6.0625,-19.0,172.9375,4.9375,-99.1875,-0.02008056640625,-0.7611083984375,-0.6470947265625,0.03961181640625,63.0,-93.0,-95.0,84.0,964.0,-156.0,3828,3941.561892605975,-2388.2099724057102,
332,12.605977773666382,0.03860187530517578,25.905477184573957,26.336711515828696,101442.75,99.0,891.0,-214.0,-6.0,-45.375,22.0,-1.8125,14.6875,-13.5625,172.8125,4.25,-99.125,-0.0098876953125,-0.76092529296875,-0.64752197265625,0.0404052734375,26.0,-74.0,-59.0,72.0,965.0,-155.0,3725,3833.2809463029876,-2596.6397781909163,
333,12.644417762756348,0.03843998908996582,26.014575541620925,26.335732198032783,101442.75,101.0,881.0,-284.0,-4.875,-44.25,22.0,13.625,6.75,-11.8125,172.8125,3.8125,-99.5,-0.00439453125,-0.76324462890625,-0.64483642578125,0.040283203125,12.0,-115.0,-87.0,65.0,964.0,-161.0,3791,3812.140473151494,-1573.3001069880272,
334,12.680118799209595,0.03570103645324707,28.01039127560254,26.340447222057545,101442.75,54.0,813.0,-142.0,-4.875,-43.875,23.25,-16.9375,20.875,-13.1875,172.5625,3.625,-99.1875,0.0,-0.76171875,-0.6466064453125,0.04193115234375,6.0,-136.0,-26.0,62.0,965.0,-157.0,3786,3799.070236575747,-969.7012737696962,
335,12.71633791923523,0.036219120025634766,27.609726555814476,26.34406242800971,101442.75,62.0,856.0,-174.0,-5.5625,-43.875,21.6875,6.8125,-1.0,-6.8125,172.25,3.1875,-98.9375,0.00775146484375,-0.75994873046875,-0.6484375,0.04364013671875,7.0,-110.0,-21.0,55.0,967.0,-152.0,3893,3846.0351182878735,163.49313401414418,
336,12.75640082359314,0.040062904357910156,24.960746506700946,26.339717969551675,101442.75,99.0,881.0,-204.0,-5.5625,-43.875,21.6875,-14.1875,5.8125,-2.4375,172.25,3.125,-98.75,0.00927734375,-0.75799560546875,-0.65069580078125,0.04400634765625,28.0,-74.0,-13.0,53.0,968.0,-146.0,3823,3834.5175591439365,-61.996870076801144,
337,12.790122985839844,0.0337221622467041,29.654088984099378,26.348456568642714,101442.75,62.0,917.0,-135.0,-4.5,-42.75,22.5625,-17.375,-2.8125,-1.6875,172.25,3.0,-98.0,0.01019287109375,-0.75390625,-0.6553955078125,0.04388427734375,25.0,-21.0,-15.0,51.0,970.0,-134.0,3744,3789.2587795719683,-702.0523734078436,
338,12.828187942504883,0.03806495666503906,26.27088239715388,26.34822638356207,101442.75,97.0,954.0,-144.0,-4.875,-44.25,21.75,-15.9375,-6.1875,9.125,172.25,3.125,-97.5,0.00872802734375,-0.751953125,-0.65771484375,0.04443359375,43.0,-16.0,-16.0,54.0,970.0,-128.0,3655,3722.129389785984,-1232.800338934068,
339,12.8659029006958,0.03771495819091797,26.51467873669305,26.348714320054953,101440.75,185.0,961.0,-80.0,-4.875,-44.25,21.75,-21.25,-6.75,9.125,172.125,3.4375,-96.8125,0.00579833984375,-0.74798583984375,-0.66217041015625,0.0455322265625,125.0,-10.0,35.0,59.0,971.0,-116.0,3645,3683.564694892992,-1127.6654173001698,
340,12.90473484992981,0.03883194923400879,25.751990814929425,26.346918704947225,101440.75,164.0,1031.0,-140.0,-4.5,-45.0,21.375,-2.0625,-23.3125,-15.5,172.9375,3.1875,-96.625,0.003662109375,-0.7470703125,-0.66351318359375,0.04071044921875,109.0,59.0,-26.0,51.0,972.0,-114.0,3519,3601.282347446496,-1623.2998364865864,
341,12.942344903945923,0.03761005401611328,26.58863503816213,26.347621125135856,101440.75,48.0,1127.0,-247.0,-5.1875,-45.375,21.75,9.1875,-23.75,2.75,174.25,2.6875,-97.0,0.0015869140625,-0.74896240234375,-0.66180419921875,0.0330810546875,1.0,155.0,-127.0,46.0,972.0,-119.0,3458,3529.641173723248,-1764.0704291597979,
342,12.981316804885864,0.038971900939941406,25.659513030710876,26.34555531926308,101440.75,193.0,1005.0,-119.0,-3.0,-45.6875,21.375,-8.625,-7.8125,8.0,174.375,3.0625,-96.8125,-0.0037841796875,-0.74810791015625,-0.66278076171875,0.032470703125,140.0,33.0,-2.0,52.0,972.0,-116.0,3332,3430.820586861624,-2149.879282719064,
343,13.021374940872192,0.040058135986328125,24.963717741167507,26.341304321356507,101440.75,37.0,1226.0,-444.0,-3.6875,-45.6875,22.0625,60.5,-64.875,-23.1875,176.8125,2.1875,-98.1875,-0.0087890625,-0.7559814453125,-0.654296875,0.01788330078125,0.0,256.0,-304.0,37.0,969.0,-140.0,3308,3369.410293430812,-1841.4542571640652,
344,13.059651851654053,0.03827691078186035,26.125410321093774,26.340671551396,101440.75,-54.0,1014.0,-381.0,-3.6875,-45.6875,22.0625,-5.1875,-10.25,19.625,178.6875,1.875,-99.5625,-0.01739501953125,-0.76336669921875,-0.64569091796875,0.00701904296875,-87.0,48.0,-219.0,32.0,966.0,-162.0,3318,3343.705146715406,-1256.505881233982,
345,13.098481893539429,0.03883004188537598,25.7532557639763,26.33893017557741,101440.75,131.0,794.0,-78.0,-1.1875,-45.6875,23.375,-35.375,11.6875,26.6875,176.9375,3.1875,-97.8125,-0.0225830078125,-0.75335693359375,-0.656982421875,0.0174560546875,76.0,-175.0,54.0,54.0,969.0,-133.0,3261,3302.352573357703,-1160.7346397067502,
346,13.132890939712524,0.0344090461730957,29.06212497055196,26.346065126736967,101440.75,100.0,827.0,-207.0,-1.5,-45.375,24.0625,13.75,-32.125,-15.0625,177.625,3.0625,-97.9375,-0.02581787109375,-0.75390625,-0.65631103515625,0.0133056640625,47.0,-142.0,-72.0,52.0,969.0,-135.0,3266,3284.1762866788513,-844.4880773340592,
347,13.172492742538452,0.039601802825927734,25.25137566073858,26.34277405061072,101440.75,-82.0,818.0,-87.0,-2.1875,-45.375,21.75,-31.625,-5.6875,-33.5,179.8125,1.6875,-97.5625,-0.02166748046875,-0.75213623046875,-0.65869140625,0.00103759765625,-111.0,-152.0,41.0,29.0,971.0,-129.0,3327,3305.5881433394256,-151.9046206020043,
348,13.20922589302063,0.036733150482177734,27.22336600246641,26.345222863050065,101440.75,-16.0,826.0,-66.0,-2.1875,-45.375,21.75,14.625,-9.6875,12.1875,180.25,1.375,-97.125,-0.0205078125,-0.749755859375,-0.66143798828125,-0.0015869140625,-40.0,-146.0,55.0,24.0,972.0,-122.0,3327,3316.294071669713,69.77339236479193,
349,13.247020721435547,0.03779482841491699,26.45864637938974,26.345546469574764,101442.0,123.0,822.0,-152.0,-1.1875,-45.375,21.375,18.5,-6.4375,15.75,179.9375,2.0625,-98.125,-0.027587890625,-0.75506591796875,-0.655029296875,0.00018310546875,87.0,-147.0,-13.0,35.0,970.0,-139.0,3313,3314.6470358348565,13.097526818070097,
350,13.284148931503296,0.03712821006774902,26.93369807419394,26.34719030964616,101442.0,150.0,827.0,-114.0,-1.875,-44.6875,22.5625,3.75,-2.75,0.125,179.6875,2.1875,-98.375,-0.028076171875,-0.75634765625,-0.653564453125,0.00164794921875,111.0,-141.0,28.0,38.0,969.0,-142.0,3257,3285.823517917428,-381.61320110303404,
351,13.322932004928589,0.03878307342529297,25.784444389800083,26.345552155498023,101442.0,34.0,875.0,-45.0,-1.875,-45.375,21.75,0.5625,2.0625,-8.0625,180.0,1.875,-98.375,-0.025390625,-0.75665283203125,-0.6533203125,-0.0001220703125,1.0,-93.0,98.0,32.0,969.0,-143.0,3257,3271.411758958714,-376.6061992665994,
352,13.360722780227661,0.037790775299072266,26.461484107857117,26.3458800687729,101442.0,93.0,930.0,-87.0,-1.875,-45.375,21.75,14.3125,0.8125,9.5625,179.6875,2.0625,-98.6875,-0.02618408203125,-0.75848388671875,-0.65118408203125,0.00140380859375,57.0,-38.0,61.0,35.0,968.0,-149.0,3097,3184.205879479357,-1342.101596610654,
353,13.39793586730957,0.03721308708190918,26.872266678626115,26.3473421201624,101442.0,109.0,956.0,-70.0,-2.5625,-45.0,21.75,-7.1875,14.625,8.6875,178.625,2.5,-98.875,-0.02508544921875,-0.75927734375,-0.65020751953125,0.0074462890625,66.0,-11.0,81.0,43.0,967.0,-151.0,3022,3103.1029397396787,-1760.7607108579164,
354,13.437355041503906,0.03941917419433594,25.368365026370544,26.3444702403562,101442.0,125.0,992.0,-20.0,-1.875,-45.0625,22.875,-13.0,16.625,-1.8125,177.8125,2.6875,-98.3125,-0.021728515625,-0.75634765625,-0.6536865234375,0.012451171875,78.0,23.0,121.0,46.0,969.0,-142.0,2985,3044.0514698698394,-1629.3999769298616,
355,13.476793766021729,0.039438724517822266,25.355789575499642,26.341576948000885,101442.0,97.0,1081.0,-105.0,-1.5,-45.375,21.0,4.1875,4.8125,-5.625,177.625,2.5,-98.25,-0.0185546875,-0.75604248046875,-0.65411376953125,0.0133056640625,38.0,118.0,12.0,43.0,969.0,-141.0,2910,2977.0257349349195,-1664.445204041453,
356,13.516015768051147,0.039222002029418945,25.495893841674317,26.33912286796119,101442.0,85.0,1172.0,-243.0,-1.5,-45.375,21.0,-8.5,1.3125,-9.625,177.625,2.3125,-98.0625,-0.01531982421875,-0.75518798828125,-0.6551513671875,0.013427734375,42.0,205.0,-103.0,39.0,970.0,-138.0,2853,2915.0128674674597,-1622.7593449048127,
357,13.555711030960083,0.03969526290893555,25.191922832054008,26.3357635158084,101442.0,4.0,1158.0,-141.0,-2.5625,-44.6875,21.75,-23.4375,10.8125,-9.4375,177.8125,1.875,-97.25,-0.0113525390625,-0.75067138671875,-0.66046142578125,0.01226806640625,-28.0,186.0,-16.0,32.0,972.0,-124.0,2867,2891.00643373373,-1113.7637854988768,
358,13.596863031387329,0.041152000427246094,24.300155268707563,26.329602583594767,101442.0,73.0,1239.0,-269.0,-2.5625,-45.6875,21.375,32.6875,-8.5,23.5,177.25,2.3125,-97.5,-0.01312255859375,-0.75177001953125,-0.65911865234375,0.015625,34.0,268.0,-141.0,39.0,971.0,-128.0,2914,2902.503216866865,-417.19508513651823,
359,13.636695861816406,0.03983283042907715,25.104919465376994,26.32602528045098,101447.75,190.0,953.0,-374.0,-2.1875,-46.5,21.375,1.25,14.375,39.1875,176.0,3.625,-98.6875,-0.0228271484375,-0.758544921875,-0.65087890625,0.0225830078125,128.0,-14.0,-225.0,62.0,967.0,-148.0,2844,2873.2516084334325,-575.7771795452915,
360,13.67621397972107,0.039518117904663086,25.304848839524347,26.323074539035716,101447.75,196.0,782.0,-50.0,-3.375,-44.6875,22.5625,-79.25,53.25,13.0,173.375,4.5625,-96.1875,-0.0172119140625,-0.744140625,-0.66668701171875,0.0384521484375,67.0,-173.0,119.0,78.0,971.0,-106.0,2830,2851.6258042167165,-561.507443141219,
361,13.710678815841675,0.03446483612060547,29.01508066078198,26.32984149427315,101447.75,89.0,854.0,-145.0,-3.375,-44.6875,22.5625,32.3125,-14.625,-17.8125,173.8125,4.125,-96.375,-0.0140380859375,-0.74517822265625,-0.665771484375,0.0357666015625,19.0,-117.0,-36.0,70.0,972.0,-108.0,2731,2791.3129021083582,-1155.7455813505403,
362,13.747397899627686,0.03671908378601074,27.23379498866964,26.332255939853454,101447.75,50.0,842.0,-224.0,-4.875,-46.5,20.1875,-9.4375,21.5625,2.5625,173.8125,3.8125,-96.8125,-0.01043701171875,-0.748046875,-0.66259765625,0.0357666015625,45.0,-138.0,-40.0,66.0,971.0,-117.0,2637,2714.1564510541793,-1628.5042757066858,
363,13.783024787902832,0.035626888275146484,28.068687679850097,26.33674433485747,101447.75,133.0,827.0,-143.0,-4.875,-45.375,22.5625,6.75,15.8125,4.875,173.125,4.0,-96.8125,-0.0078125,-0.7479248046875,-0.66259765625,0.03973388671875,65.0,-144.0,-26.0,69.0,970.0,-120.0,2488,2601.0782255270897,-2401.230835709109,
364,13.815985918045044,0.032961130142211914,30.33876556069122,26.346292053220754,101447.75,150.0,846.0,-254.0,-4.875,-45.375,22.5625,21.75,9.6875,-2.4375,172.75,4.0625,-97.8125,-0.0064697265625,-0.75372314453125,-0.6558837890625,0.04150390625,80.0,-122.0,-120.0,69.0,969.0,-133.0,2483,2542.039112763545,-2096.202318376754,
365,13.851771831512451,0.03578591346740723,27.943956241630413,26.3504196026124,101447.75,118.0,839.0,-164.0,-5.1875,-45.375,20.5625,-1.3125,21.0,-8.9375,171.9375,3.875,-97.75,0.00103759765625,-0.75341796875,-0.65594482421875,0.046142578125,43.0,-125.0,-19.0,66.0,969.0,-132.0,2422,2482.0195563817724,-1886.693087775536,
366,13.889951944351196,0.03818011283874512,26.191646007530956,26.34998317246489,101447.75,78.0,869.0,-182.0,-4.875,-43.5625,22.1875,2.875,8.0625,-11.5625,171.75,3.5,-97.9375,0.00689697265625,-0.75445556640625,-0.6546630859375,0.04718017578125,5.0,-98.0,-48.0,60.0,969.0,-135.0,2413,2447.509778190886,-1395.2804909748197,
367,13.926341772079468,0.036389827728271484,27.480207036624517,26.3529364714995,101447.75,41.0,903.0,-144.0,-5.1875,-45.6875,21.0,-9.5,9.375,-8.375,171.5,3.3125,-97.6875,0.01141357421875,-0.7530517578125,-0.65606689453125,0.0484619140625,-15.0,-66.0,-13.0,56.0,970.0,-131.0,2347,2397.254889095443,-1388.1476239601,
368,13.965152025222778,0.03881025314331055,25.766386946959738,26.351306404351835,101447.75,81.0,931.0,-150.0,-5.1875,-45.6875,21.0,-7.625,-1.5625,-0.5625,171.5625,3.25,-97.5,0.0120849609375,-0.75177001953125,-0.65753173828125,0.04840087890625,25.0,-39.0,-22.0,55.0,970.0,-128.0,2300,2348.6274445477216,-1320.5505882092605,
369,14.000069856643677,0.03491783142089844,28.63866280657672,26.35701134197502,101445.25,92.0,979.0,-182.0,-5.1875,-45.0625,21.75,-12.625,-10.5,-0.375,171.6875,3.1875,-97.0625,0.01177978515625,-0.7493896484375,-0.6602783203125,0.0478515625,37.0,13.0,-51.0,55.0,971.0,-121.0,2282,2315.3137222738605,-1137.3055236211549,
370,14.037938833236694,0.03786897659301758,26.406839845373156,26.357145760172113,101445.25,132.0,984.0,-162.0,-4.875,-46.5,21.375,-15.25,-12.6875,0.625,172.1875,3.125,-96.625,0.0091552734375,-0.7469482421875,-0.663330078125,0.04510498046875,103.0,19.0,-59.0,54.0,972.0,-113.0,2193,2254.1568611369303,-1376.1324805548993,
371,14.072635889053345,0.03469705581665039,28.82088916374631,26.36322028971055,101445.25,137.0,1065.0,-188.0,-5.5625,-45.75,20.1875,-1.9375,-22.625,-6.3125,172.6875,2.9375,-96.4375,0.00885009765625,-0.74566650390625,-0.6649169921875,0.0423583984375,87.0,92.0,-78.0,50.0,973.0,-110.0,2216,2235.078430568465,-962.9949066934312,
372,14.107521772384644,0.03488588333129883,28.6648897636719,26.368911989077127,101445.25,106.0,1107.0,-269.0,-5.5625,-45.75,20.1875,7.375,-19.9375,-2.5625,173.6875,2.75,-96.6875,0.00494384765625,-0.74713134765625,-0.66363525390625,0.0364990234375,43.0,108.0,-115.0,47.0,972.0,-114.0,2164,2199.5392152842323,-990.861297551684,
373,14.14978575706482,0.04226398468017578,23.66080736511948,26.360823153365807,101445.25,175.0,1098.0,-184.0,-4.5,-46.5,18.5625,-31.5625,-6.875,-12.0,174.25,2.375,-95.75,0.00604248046875,-0.74176025390625,-0.6697998046875,0.03350830078125,102.0,169.0,-108.0,40.0,974.0,-98.0,2211,2205.269607642116,-427.6377939226209,
374,14.189116954803467,0.03933119773864746,25.425109264277097,26.35822942268364,101445.25,6.0,1196.0,-371.0,-4.0625,-46.0625,19.75,39.25,-33.1875,-24.125,176.3125,1.25,-96.75,0.006591796875,-0.74761962890625,-0.66375732421875,0.02099609375,-112.0,188.0,-293.0,22.0,973.0,-115.0,2221,2213.134803821058,-113.832160844024,
375,14.22821569442749,0.03909873962402344,25.57627201326894,26.35608062554671,101445.25,-44.0,941.0,-288.0,-3.6875,-45.375,19.75,-5.1875,2.1875,29.6875,176.125,1.625,-97.0625,0.00311279296875,-0.74932861328125,-0.66180419921875,0.02227783203125,-72.0,-31.0,-167.0,28.0,972.0,-120.0,2164,2188.567401910529,-371.0873573835089,
