Index,Time,Difference,Hz,AveHz,0x6103 Pressure,0x6103 Acceleration-X,0x6103 Acceleration-Y,0x6103 Acceleration-Z,0x6103 Heading,0x6103 Roll,0x6103 Pitch,0x6103 Gravity-X,0x6103 Gravity-Y,0x6103 Gravity-Z,0x6103 Range,0x6103 Smoothed Range,0x6103 Velocity,
0,0.0,0.0,0,0,101538.25,-70.0,1008.0,13.0,82.6875,-3.1875,-88.125,-54.0,978.0,31.0,0,0.0,,
1,0.06500649452209473,0.06500649452209473,15.38307837319416,15.38307837319416,101538.25,78.0,996.0,126.0,81.875,-2.875,-86.375,-49.0,977.0,61.0,0,0.0,0.0,
2,0.13201332092285156,0.06700682640075684,14.923852594050105,15.149986274254836,101537.5,11.0,1011.0,79.0,80.875,-2.9375,-85.25,-51.0,975.0,80.0,0,0.0,0.0,
3,0.19801974296569824,0.06600642204284668,15.150040996781662,15.150004515053187,101537.5,-194.0,880.0,27.0,80.25,-3.9375,-84.875,-68.0,974.0,87.0,,0.0,0.0,
4,0.24402451515197754,0.0460047721862793,21.736875382207526,16.391795707528875,101537.5,26.0,1021.0,87.0,79.3125,-4.3125,-83.875,-74.0,972.0,103.0,0,0.0,0.0,
5,0.3130314350128174,0.06900691986083984,14.491300322005555,15.972836720999826,101537.5,-104.0,968.0,74.0,78.875,-4.9375,-83.25,-84.0,970.0,113.0,0,0.0,0.0,
6,0.37703776359558105,0.06400632858276367,15.623455088615893,15.913525326433167,101537.5,-113.0,969.0,75.0,79.0625,-4.4375,-84.125,-76.0,972.0,99.0,0,0.0,0.0,
7,0.43804383277893066,0.06100606918334961,16.391811722774136,15.980135950305042,101537.5,-157.0,993.0,102.0,79.5625,-4.375,-85.0625,-74.0,974.0,83.0,0,0.0,0.0,
8,0.5010499954223633,0.06300616264343262,15.871463330646657,15.966470558005591,101538.5,-122.0,908.0,124.0,79.5625,-4.25,-83.9375,-73.0,972.0,102.0,0,0.0,0.0,
9,0.5640566349029541,0.06300663948059082,15.871343214678982,15.955844578529689,101538.5,-88.0,959.0,66.0,79.4375,-4.375,-82.9375,-75.0,970.0,119.0,0,0.0,0.0,
10,0.6220622062683105,0.058005571365356445,17.239723296601216,16.075562699732245,101538.5,-61.0,956.0,147.0,79.3125,-4.4375,-81.6875,-76.0,967.0,140.0,0,0.0,0.0,
11,0.6860687732696533,0.06400656700134277,15.623396892681672,16.033378035231674,101538.5,-126.0,947.0,167.0,79.4375,-4.625,-81.25,-80.0,966.0,148.0,0,0.0,0.0,
12,0.748075008392334,0.062006235122680664,16.127410380931508,16.041172162386292,101538.5,-115.0,948.0,160.0,80.1875,-5.0,-81.25,-87.0,965.0,149.0,0,0.0,0.0,
13,0.8070807456970215,0.0590057373046875,16.947504525471942,16.107434193307103,101538.5,-102.0,959.0,149.0,80.8125,-5.125,-81.25,-88.0,965.0,148.0,0,0.0,0.0,
14,0.8680868148803711,0.06100606918334961,16.391811722774136,16.12741923966361,101542.5,-85.0,960.0,135.0,81.5,-5.0,-81.375,-85.0,965.0,145.0,0,0.0,0.0,
15,0.9290931224822998,0.06100630760192871,16.391747661980858,16.144775628005757,101542.5,-134.0,911.0,134.0,82.0,-4.9375,-81.375,-84.0,966.0,146.0,0,0.0,0.0,
16,0.9950995445251465,0.06600642204284668,15.150040996781662,16.07879341120096,101542.5,-120.0,980.0,124.0,83.25,-4.8125,-81.25,-82.0,965.0,147.0,0,0.0,0.0,
17,1.0651066303253174,0.0700070858001709,14.284268350412592,15.960843277078897,101542.5,-99.0,940.0,123.0,84.375,-4.8125,-81.125,-82.0,965.0,150.0,0,0.0,0.0,
18,1.1341135501861572,0.06900691986083984,14.491300322005555,15.87142662835253,101542.5,-59.0,981.0,158.0,86.375,-4.4375,-81.3125,-76.0,966.0,146.0,0,0.0,0.0,
19,1.198119878768921,0.06400632858276367,15.623455088615893,15.85817941650603,101542.5,-57.0,966.0,130.0,88.625,-4.25,-82.0,-73.0,968.0,135.0,0,0.0,0.0,
20,1.2621262073516846,0.06400632858276367,15.623455088615893,15.846275818934096,101535.5,-97.0,951.0,116.0,90.75,-4.3125,-81.75,-74.0,967.0,140.0,0,0.0,0.0,
21,1.3261327743530273,0.06400656700134277,15.623396892681672,15.835518438374429,101535.5,-86.0,949.0,139.0,92.5625,-4.3125,-81.75,-74.0,967.0,139.0,0,0.0,0.0,
22,1.391139268875122,0.06500649452209473,15.38307837319416,15.81437638360194,101535.5,-95.0,934.0,143.0,94.8125,-4.1875,-81.75,-73.0,968.0,138.0,0,0.0,0.0,
23,1.4581458568572998,0.06700658798217773,14.923905695153106,15.773456332805583,101535.5,-48.0,958.0,147.0,96.8125,-4.0625,-81.5,-70.0,967.0,143.0,0,0.0,0.0,
24,1.5201520919799805,0.062006235122680664,16.127410380931508,15.787893939441465,101535.5,-8.0,953.0,149.0,97.9375,-4.125,-81.3125,-71.0,966.0,147.0,0,0.0,0.0,
25,1.5841584205627441,0.06400632858276367,15.623455088615893,15.78124995296821,101535.5,-74.0,960.0,144.0,98.125,-4.125,-80.8125,-71.0,965.0,155.0,0,0.0,0.0,
26,1.649165153503418,0.06500673294067383,15.383021954243045,15.765552615980685,101540.25,-65.0,966.0,155.0,98.375,-4.125,-81.25,-71.0,966.0,148.0,0,0.0,0.0,
27,1.7101712226867676,0.06100606918334961,16.391811722774136,15.787892838929661,101540.25,-48.0,956.0,135.0,98.625,-3.9375,-82.1875,-67.0,969.0,132.0,0,0.0,0.0,
28,1.7701771259307861,0.060005903244018555,16.665027037980316,15.817626151550892,101540.25,-51.0,969.0,108.0,98.5625,-3.8125,-83.125,-65.0,971.0,116.0,0,0.0,0.0,
29,1.8331835269927979,0.06300640106201172,15.871403272435558,15.819474467770478,101540.25,-42.0,972.0,117.0,98.75,-3.875,-83.5,-67.0,972.0,109.0,0,0.0,0.0,
30,1.8941895961761475,0.06100606918334961,16.391811722774136,15.837907704995224,101540.25,-73.0,958.0,92.0,98.8125,-3.9375,-83.8125,-67.0,972.0,105.0,0,0.0,0.0,
31,1.9601960182189941,0.06600642204284668,15.150040996781662,15.814744909116872,101540.25,-78.0,957.0,92.0,98.875,-3.8125,-84.5,-65.0,973.0,93.0,0,0.0,0.0,
32,2.027202844619751,0.06700682640075684,14.923852594050105,15.785297502383065,101540.0,-23.0,973.0,83.0,99.0625,-3.6875,-85.375,-63.0,975.0,78.0,0,0.0,0.0,
33,2.096209764480591,0.06900691986083984,14.491300322005555,15.742699303844194,101540.0,-58.0,969.0,81.0,99.1875,-3.8125,-85.875,-65.0,975.0,69.0,0,0.0,0.0,
34,2.1642165184020996,0.06800675392150879,14.704421874835665,15.710073234771876,101540.0,-53.0,981.0,43.0,99.1875,-3.8125,-86.3125,-65.0,976.0,62.0,0,0.0,0.0,
35,2.2282228469848633,0.06400632858276367,15.623455088615893,15.707585104138268,101540.0,-64.0,956.0,64.0,99.4375,-4.0625,-86.4375,-70.0,976.0,60.0,0,0.0,0.0,
36,2.29522967338562,0.06700682640075684,14.923852594050105,15.684704854350175,101540.0,-57.0,1047.0,90.0,99.6875,-4.125,-86.625,-71.0,976.0,56.0,0,0.0,0.0,
37,2.359236001968384,0.06400632858276367,15.623455088615893,15.68304314156352,101540.0,-80.0,929.0,31.0,100.1875,-3.5,-86.8125,-60.0,977.0,54.0,0,0.0,0.0,
38,2.4232425689697266,0.06400656700134277,15.623396892681672,15.681467669229747,101539.5,-105.0,927.0,67.0,101.0625,-3.5625,-86.3125,-61.0,976.0,62.0,0,0.0,0.0,
39,2.486248731613159,0.06300616264343262,15.871463330646657,15.68628251232753,101539.5,-185.0,886.0,101.0,101.875,-4.125,-85.75,-71.0,975.0,72.0,0,0.0,0.0,
40,2.5462546348571777,0.060005903244018555,16.665027037980316,15.709347938896789,101539.5,-45.0,1001.0,93.0,101.625,-3.125,-85.75,-53.0,976.0,72.0,0,0.0,0.0,
41,2.6082608699798584,0.062006235122680664,16.127410380931508,15.71928654525903,101539.5,-40.0,1008.0,48.0,100.9375,-1.9375,-86.25,-34.0,978.0,63.0,0,0.0,0.0,
42,2.670267105102539,0.062006235122680664,16.127410380931508,15.728763583142438,101539.5,23.0,1015.0,18.0,99.9375,-1.0,-87.25,-19.0,979.0,48.0,0,0.0,0.0,
43,2.7342734336853027,0.06400632858276367,15.623455088615893,15.726298427309748,101539.5,51.0,952.0,-15.0,99.8125,-1.0625,-87.75,-18.0,979.0,38.0,0,0.0,0.0,
44,2.7962799072265625,0.062006473541259766,16.127348370079286,15.735191561577457,101543.25,-21.0,988.0,63.0,100.5,-1.125,-88.0,-19.0,979.0,33.0,0,0.0,0.0,
45,2.857285976409912,0.06100606918334961,16.391811722774136,15.749211094558008,101543.25,11.0,1009.0,56.0,101.125,-0.8125,-88.1875,-12.0,980.0,30.0,0,0.0,0.0,
46,2.921292304992676,0.06400632858276367,15.623455088615893,15.74645574541892,101543.25,42.0,1026.0,36.0,101.0,-0.5,-88.1875,-9.0,980.0,29.0,0,0.0,0.0,
47,2.9862985610961914,0.06500625610351562,15.383134792559122,15.738546912987676,101543.25,-15.0,945.0,69.0,101.25,-0.625,-88.125,-10.0,980.0,29.0,0,0.0,0.0,
48,3.048304796218872,0.062006235122680664,16.127410380931508,15.746456869909915,101543.25,-4.0,926.0,13.0,101.4375,-0.6875,-87.3125,-12.0,979.0,45.0,0,0.0,0.0,
49,3.1083106994628906,0.060005903244018555,16.665027037980316,15.7641898567177,101543.25,128.0,995.0,31.0,100.5625,0.75,-87.6875,13.0,979.0,39.0,0,0.0,0.0,
50,3.1733174324035645,0.06500673294067383,15.383021954243045,15.75638147304051,101539.75,24.0,929.0,-16.0,100.0625,1.4375,-88.375,25.0,979.0,26.0,0,0.0,0.0,
51,3.239323854446411,0.06600642204284668,15.150040996781662,15.744026312773755,101539.75,147.0,938.0,99.0,100.5625,1.0,-87.875,17.0,979.0,35.0,0,0.0,0.0,
52,3.304330587387085,0.06500673294067383,15.383021954243045,15.736924204402698,101539.75,-104.0,880.0,63.0,101.375,-0.125,-88.25,-2.0,980.0,28.0,0,0.0,0.0,
53,3.3683369159698486,0.06400632858276367,15.623455088615893,15.734768024159976,101539.75,124.0,924.0,-4.0,101.125,-0.4375,-88.9375,-8.0,980.0,18.0,0,0.0,0.0,
54,3.4293429851531982,0.06100606918334961,16.391811722774136,15.746456459381438,101539.75,55.0,940.0,-4.0,101.25,-1.4375,-91.5625,-25.0,979.0,-27.0,0,0.0,0.0,
55,3.494349479675293,0.06500649452209473,15.38307837319416,15.739696421295214,101539.75,-25.0,975.0,-11.0,102.125,-2.0625,-93.875,-35.0,977.0,-66.0,0,0.0,0.0,
56,3.5583560466766357,0.06400656700134277,15.623396892681672,15.737604462684894,101538.75,-55.0,947.0,-72.0,102.25,-2.25,-96.25,-40.0,974.0,-98.0,0,0.0,0.0,
57,3.6233623027801514,0.06500625610351562,15.383134792559122,15.731244969972987,101538.75,-10.0,1065.0,-100.0,101.6875,-1.8125,-97.8125,-31.0,971.0,-133.0,0,0.0,0.0,
58,3.689368963241577,0.06600666046142578,15.149986274254836,15.720845645386376,101538.75,0.0,1077.0,-152.0,101.6875,-2.0,-97.6875,-34.0,971.0,-131.0,0,0.0,0.0,
59,3.7663767337799072,0.07700777053833008,12.985702520789859,15.664922595459018,101538.75,-50.0,949.0,-126.0,101.6875,-2.25,-97.9375,-38.0,970.0,-135.0,0,0.0,0.0,
60,3.834383487701416,0.06800675392150879,14.704421874835665,15.647887122518354,101538.75,-43.0,960.0,-147.0,100.5625,-1.75,-98.4375,-30.0,969.0,-145.0,0,0.0,0.0,
61,3.901390314102173,0.06700682640075684,14.923852594050105,15.635451746395677,101540.25,-43.0,1007.0,-156.0,99.9375,-1.9375,-98.75,-33.0,968.0,-149.0,0,0.0,0.0,
62,3.9633963108062744,0.06200599670410156,16.127472392260604,15.64314924322754,101540.25,-14.0,941.0,-156.0,100.3125,-2.6875,-98.875,-46.0,967.0,-152.0,2,0.4,0.6450988956904243,
63,4.030403137207031,0.06700682640075684,14.923852594050105,15.631190691176721,101540.25,-54.0,911.0,-180.0,100.3125,-3.0625,-99.6875,-52.0,965.0,-165.0,0,0.32000000000000006,0.46119818536898105,
64,4.092409372329712,0.062006235122680664,16.127410380931508,15.638709175266674,101540.25,-61.0,905.0,-190.0,100.0625,-3.0,-100.0,-51.0,964.0,-170.0,30,6.256,9.988309168953027,
65,4.157415866851807,0.06500649452209473,15.38307837319416,15.634712061947534,101540.25,49.0,909.0,-225.0,99.0625,-2.4375,-99.9375,-42.0,965.0,-169.0,86,22.2048,33.52364228789762,
66,4.222422361373901,0.06500649452209473,15.38307837319416,15.630838024106327,101540.25,-36.0,975.0,-163.0,99.125,-2.3125,-99.75,-39.0,965.0,-166.0,96,36.963840000000005,52.87522496241863,
67,4.285428762435913,0.06300640106201172,15.871403272435558,15.634374928196454,101537.5,-57.0,977.0,-153.0,99.125,-2.1875,-99.875,-37.0,965.0,-168.0,86,46.771072000000004,63.15315587201024,
68,4.349434852600098,0.06400609016418457,15.623513284983666,15.634215088737221,101537.5,-44.0,954.0,-144.0,98.9375,-1.9375,-99.6875,-33.0,966.0,-165.0,138,65.01685760000001,85.3441676564656,
69,4.411441087722778,0.062006235122680664,16.127410380931508,15.641147332111004,101537.5,4.0,961.0,-141.0,99.5,-2.0,-99.625,-34.0,966.0,-164.0,199,91.81348608000002,120.02577332305076,
70,4.478447914123535,0.06700682640075684,14.923852594050105,15.630415121998691,101537.5,-95.0,923.0,-142.0,100.375,-2.5,-100.1875,-42.0,964.0,-173.0,227,118.85078886400002,148.37326811965733,
71,4.541454315185547,0.06300640106201172,15.871403272435558,15.633758499472917,101537.5,-64.0,987.0,-166.0,100.5625,-2.5,-100.5625,-43.0,963.0,-179.0,241,143.2806310912,172.30952909467823,
72,4.6074607372283936,0.06600642204284668,15.150040996781662,15.62682876887876,101537.5,17.0,951.0,-202.0,101.375,-2.8125,-100.5,-49.0,962.0,-178.0,278,170.22450487296,195.89865542578787,
73,4.672467231750488,0.06500649452209473,15.38307837319416,15.623437550069529,101539.25,-25.0,924.0,-153.0,102.5,-3.125,-100.5625,-54.0,962.0,-180.0,278,191.779603898368,209.4671676481903,
74,4.734473466873169,0.062006235122680664,16.127410380931508,15.63003795834397,101539.25,-33.0,1025.0,-137.0,103.6875,-3.6875,-100.5,-63.0,962.0,-178.0,339,221.2236831186944,236.0061257708574,
75,4.79647970199585,0.062006235122680664,16.127410380931508,15.636467713767654,101539.25,-9.0,971.0,-168.0,103.8125,-3.5,-100.0,-60.0,963.0,-170.0,368,250.57894649495552,259.7479511247009,
76,4.859485864639282,0.06300616264343262,15.871463330646657,15.639514573552823,101539.25,-13.0,901.0,-203.0,104.0,-3.5625,-100.0625,-61.0,963.0,-171.0,415,283.4631571959644,285.9652104420629,
77,4.921492099761963,0.062006235122680664,16.127410380931508,15.645661608137956,101539.25,-49.0,1030.0,-200.0,104.125,-3.5625,-99.875,-61.0,964.0,-168.0,429,312.57052575677153,304.3113371867727,
78,4.985498666763306,0.06400656700134277,15.623396892681672,15.64537576150618,101539.25,-62.0,999.0,-189.0,103.6875,-3.25,-99.8125,-56.0,964.0,-167.0,471,344.25642060541725,323.3843345801124,
79,5.049504995346069,0.06400632858276367,15.623455088615893,15.645097900251846,101540.0,-33.0,924.0,-192.0,102.875,-2.9375,-100.125,-50.0,963.0,-173.0,475,370.4051364843338,331.8992299380242,
80,5.110511064529419,0.06100606918334961,16.391811722774136,15.654011700562961,101540.0,-6.0,877.0,-231.0,102.1875,-2.5625,-100.5625,-44.0,963.0,-179.0,475,391.32410918746706,332.999293142583,
81,5.1715171337127686,0.06100606918334961,16.391811722774136,15.662715196661829,101540.0,-4.0,992.0,-190.0,101.9375,-2.4375,-100.6875,-42.0,962.0,-181.0,551,423.25928734997365,352.0469066056303,
82,5.234523296356201,0.06300616264343262,15.871463330646657,15.66522782639652,101540.0,-11.0,1014.0,-165.0,101.625,-2.375,-101.1875,-41.0,961.0,-190.0,574,453.40742987997896,364.6917298102761,
83,5.298529863357544,0.06400656700134277,15.623396892681672,15.664722506141544,101540.0,-52.0,972.0,-168.0,101.5625,-2.375,-101.875,-41.0,958.0,-202.0,555,473.7259439039832,359.9669777159022,
84,5.360536098480225,0.062006235122680664,16.127410380931508,15.670074495686167,101540.0,-42.0,940.0,-194.0,101.3125,-2.5,-102.5,-42.0,956.0,-212.0,583,495.5807551231866,359.2164308772999,
85,5.423542499542236,0.06300640106201172,15.871403272435558,15.67241337321027,101533.75,-8.0,913.0,-155.0,101.1875,-2.5625,-103.0,-44.0,954.0,-221.0,607,517.8646040985493,358.6623831445731,
86,5.484548568725586,0.06100606918334961,16.391811722774136,15.680415429338305,101533.75,26.0,987.0,-160.0,101.125,-2.8125,-103.0625,-48.0,953.0,-222.0,668,547.8916832788394,372.01596768093043,
87,5.5475547313690186,0.06300616264343262,15.871463330646657,15.682585249326644,101533.75,-9.0,945.0,-181.0,100.875,-2.75,-103.0,-47.0,954.0,-220.0,714,581.1133466230715,387.54201206794414,
88,5.610560894012451,0.06300616264343262,15.871463330646657,15.68470633549543,101533.75,-58.0,920.0,-208.0,101.0625,-2.75,-102.9375,-47.0,954.0,-219.0,738,612.4906772984572,398.5882261839456,
89,5.680567979812622,0.0700070858001709,14.284268350412592,15.66744739545142,101533.75,-88.0,904.0,-192.0,101.1875,-2.875,-103.25,-49.0,953.0,-224.0,817,653.3925418387657,417.15472447815034,
90,5.742574214935303,0.062006235122680664,16.127410380931508,15.67241390906673,101533.75,-19.0,1115.0,-163.0,100.875,-2.9375,-102.8125,-50.0,954.0,-217.0,827,688.1140334710126,431.43602648946774,
91,5.8055806159973145,0.06300640106201172,15.871403272435558,15.67457348697371,101536.5,-151.0,961.0,-276.0,100.25,-2.75,-101.625,-47.0,959.0,-197.0,869,724.2912267768102,445.7107062626379,
92,5.866586685180664,0.06100606918334961,16.391811722774136,15.682031978219516,101536.5,-118.0,913.0,-296.0,100.0,-2.8125,-101.5625,-48.0,959.0,-196.0,947,768.8329814214482,474.15164123006474,
93,5.930593013763428,0.06400632858276367,15.623455088615893,15.681399783153251,101536.5,1.0,938.0,-245.0,99.3125,-2.6875,-101.1875,-46.0,960.0,-190.0,896,794.2663851371586,466.4722411773622,
94,5.9935994148254395,0.06300640106201172,15.871403272435558,15.683397153217605,101536.5,17.0,929.0,-237.0,98.5625,-2.4375,-101.3125,-42.0,960.0,-193.0,933,822.013108109727,463.86296003824447,
95,6.056605577468872,0.06300616264343262,15.871463330646657,15.685353583764593,101536.5,-42.0,986.0,-217.0,98.5625,-2.375,-101.75,-42.0,958.0,-200.0,985,854.6104864877816,469.2134735946708,
96,6.117611646652222,0.06100606918334961,16.391811722774136,15.692398528195994,101536.5,-71.0,944.0,-187.0,99.1875,-2.5625,-102.125,-43.0,957.0,-206.0,1060,895.6883891902253,489.6262509416929,
97,6.1836183071136475,0.06600666046142578,15.149986274254836,15.686608581323817,101525.5,-70.0,963.0,-146.0,99.1875,-2.625,-102.375,-44.0,956.0,-210.0,1051,926.7507113521804,487.72300128753375,
98,6.244624376296997,0.06100606918334961,16.391811722774136,15.693497974351033,101525.5,-60.0,915.0,-140.0,98.8125,-2.4375,-102.9375,-42.0,954.0,-220.0,1046,950.6005690817444,478.0449389105767,
99,6.304630517959595,0.060006141662597656,16.664960823890276,15.702744152569302,101525.5,-8.0,901.0,-157.0,98.9375,-2.5625,-103.1875,-44.0,953.0,-224.0,1032,966.8804552653955,457.37081156631285,
100,6.364636421203613,0.060005903244018555,16.665027037980316,15.711816572405096,101525.5,-48.0,871.0,-148.0,99.6875,-2.8125,-103.5625,-48.0,952.0,-229.0,1135,1000.5043642123164,467.6680655819841,
101,6.426642656326294,0.062006235122680664,16.127410380931508,15.715826349949154,101525.5,-120.0,1026.0,-165.0,100.75,-3.25,-103.1875,-55.0,953.0,-224.0,1167,1033.8034913698532,474.6041279234273,
102,6.486648797988892,0.060006141662597656,16.664960823890276,15.724606522804795,101525.5,-39.0,1029.0,-203.0,101.0625,-3.3125,-102.5,-57.0,955.0,-212.0,1219,1070.8427930958826,488.86956635193775,
103,6.547654867172241,0.06100606918334961,16.391811722774136,15.730823033511992,101528.75,-26.0,989.0,-216.0,101.0625,-3.3125,-101.875,-57.0,957.0,-201.0,1233,1103.2742344767062,493.1436178180086,
104,6.611661195755005,0.06400632858276367,15.623455088615893,15.72978362333098,101528.75,-8.0,921.0,-309.0,100.5625,-3.125,-101.75,-54.0,958.0,-200.0,1275,1137.6193875813651,497.4882517404353,
105,6.671667098999023,0.060005903244018555,16.665027037980316,15.738195332880677,101528.75,-104.0,946.0,-296.0,100.625,-3.125,-101.3125,-54.0,960.0,-192.0,1322,1174.4955100650923,509.1935843911105,
106,6.731673002243042,0.060005903244018555,16.665027037980316,15.74645707904707,101528.75,-41.0,1051.0,-237.0,100.375,-3.3125,-101.0,-57.0,960.0,-187.0,1378,1215.1964080520738,526.1023824943121,
107,6.790678977966309,0.0590059757232666,16.947436047662723,15.756892697649603,101528.75,67.0,908.0,-257.0,98.9375,-2.875,-101.625,-49.0,959.0,-197.0,1364,1244.957126441659,523.9289314088805,
108,6.852685213088989,0.062006235122680664,16.127410380931508,15.760245311387472,101528.75,59.0,899.0,-241.0,98.0625,-2.5625,-102.0625,-44.0,957.0,-205.0,1452,1286.3657011533273,538.3173460344462,
109,6.914691686630249,0.062006473541259766,16.127348370079286,15.763537253693404,101528.75,-34.0,947.0,-213.0,97.6875,-2.5625,-102.4375,-44.0,956.0,-211.0,1471,1323.292560922662,544.0388446023143,
110,6.978698015213013,0.06400632858276367,15.623455088615893,15.762252466034303,101528.75,-47.0,977.0,-194.0,97.0,-2.375,-103.3125,-40.0,953.0,-226.0,1480,1354.6340487381296,538.6011928716189,
111,7.035703420639038,0.05700540542602539,17.542196086960157,15.776674109710854,101528.75,-48.0,922.0,-200.0,96.4375,-2.3125,-103.75,-40.0,951.0,-233.0,1513,1386.3072389905037,540.3028049951312,
112,7.095709562301636,0.060006141662597656,16.664960823890276,15.78418606576543,101528.75,-15.0,924.0,-226.0,95.4375,-2.0625,-104.125,-35.0,950.0,-240.0,1569,1422.8457911924029,547.16387859625,
113,7.1587159633636475,0.06300640106201172,15.871403272435558,15.78495369536983,101528.75,-65.0,948.0,-218.0,94.75,-2.0625,-104.0625,-35.0,950.0,-238.0,1602,1458.6766329539225,549.3160646554154,
114,7.22172212600708,0.06300616264343262,15.871463330646657,15.785708451653079,101528.75,-33.0,959.0,-193.0,94.1875,-2.125,-103.5625,-36.0,952.0,-230.0,1644,1495.741306363138,553.2115186775495,
115,7.283728361129761,0.062006235122680664,16.127410380931508,15.788617353402048,101527.0,-19.0,939.0,-203.0,94.1875,-2.3125,-102.125,-40.0,957.0,-206.0,1682,1532.9930450905106,557.9677745957523,
116,7.349734783172607,0.06600642204284668,15.150040996781662,15.78288243347022,101527.0,-110.0,980.0,-209.0,95.0625,-2.875,-101.0,-49.0,961.0,-187.0,1710,1568.3944360724086,555.8042496080623,
117,7.412741422653198,0.06300663948059082,15.871343214678982,15.783634330269528,101527.0,-124.0,876.0,-194.0,96.1875,-3.75,-100.125,-64.0,963.0,-172.0,1766,1607.915548857927,562.9491391717561,
118,7.4747474193573,0.06200599670410156,16.127472392260604,15.786486603469202,101527.0,-84.0,1049.0,-230.0,96.0625,-3.9375,-99.625,-68.0,964.0,-163.0,1809,1648.1324390863417,571.5139039407138,
119,7.5357537269592285,0.06100630760192871,16.391747661980858,15.791386543628198,101527.0,-104.0,1059.0,-271.0,95.8125,-4.0,-98.75,-69.0,966.0,-149.0,1851,1688.7059512690735,580.869590892607,
120,7.602760076522827,0.06700634956359863,14.923958796633991,15.7837415349404,101527.0,-139.0,930.0,-239.0,95.5,-3.875,-98.0625,-67.0,968.0,-137.0,1906,1732.1647610152588,587.6403804036289,
121,7.66676664352417,0.06400656700134277,15.623396892681672,15.782402885863776,101532.5,2.0,910.0,-235.0,94.375,-3.5625,-98.25,-60.0,968.0,-142.0,1920,1769.7318088122072,587.5688321450727,
122,7.731773138046265,0.06500649452209473,15.38307837319416,15.77904548177523,101532.5,-29.0,934.0,-185.0,93.75,-3.1875,-98.5625,-54.0,968.0,-146.0,1935,1802.785447049766,579.6586196833227,
123,7.79777979850769,0.06600666046142578,15.149986274254836,15.773720620264152,101532.5,-101.0,938.0,-153.0,94.1875,-3.3125,-98.625,-57.0,967.0,-147.0,1944,1831.0283576398128,564.4807284934122,
124,7.859786033630371,0.062006235122680664,16.127410380931508,15.776510896025679,101532.5,-95.0,950.0,-135.0,94.4375,-3.25,-98.3125,-55.0,968.0,-142.0,1986,1862.0226861118504,558.018481119065,
125,7.92779278755188,0.06800675392150879,14.704421874835665,15.767314226006691,101532.5,-30.0,916.0,-118.0,94.125,-3.0625,-98.125,-53.0,969.0,-137.0,2005,1890.6181488894804,544.2646078460017,
126,7.9897987842559814,0.06200599670410156,16.127472392260604,15.770109285891516,101532.5,-20.0,866.0,-76.0,94.1875,-3.0625,-98.25,-52.0,969.0,-140.0,1981,1908.6945191115844,518.990763232328,
127,8.051805257797241,0.062006473541259766,16.127348370079286,15.772860362837912,101530.25,-56.0,1049.0,-39.0,94.6875,-3.1875,-97.0625,-55.0,971.0,-121.0,2019,1930.7556152892676,502.67038525742726,
128,8.115811586380005,0.06400632858276367,15.623455088615893,15.771682060092454,101530.25,-18.0,950.0,-113.0,95.1875,-3.1875,-96.0,-54.0,973.0,-103.0,2122,1969.0044922314141,512.1613078412469,
129,8.178817749023438,0.06300616264343262,15.871463330646657,15.772450732919532,101530.25,-6.0,907.0,-144.0,95.75,-2.875,-95.6875,-50.0,974.0,-97.0,2164,2008.0035937851314,522.8424580809211,
130,8.242824077606201,0.06400632858276367,15.623455088615893,15.771293767287741,101530.25,30.0,1013.0,-147.0,96.0625,-2.5625,-95.4375,-44.0,975.0,-92.0,2169,2040.2028750281052,520.8646147113602,
131,8.304830551147461,0.062006473541259766,16.127348370079286,15.773952182793183,101530.25,-12.0,1096.0,-132.0,96.875,-2.5625,-94.75,-44.0,976.0,-81.0,2146,2061.3623000224843,502.9026950597157,
132,8.368836879730225,0.06400632858276367,15.623455088615893,15.772801154687473,101530.25,-34.0,1094.0,-105.0,98.5,-3.0,-93.8125,-51.0,977.0,-65.0,2225,2094.0898400179876,503.74415068180684,
133,8.430843114852905,0.062006235122680664,16.127410380931508,15.77540919551561,101531.25,-44.0,981.0,-119.0,99.25,-2.8125,-94.0,-48.0,977.0,-68.0,2268,2128.87187201439,509.46414600249364,
134,8.494849443435669,0.06400632858276367,15.623455088615893,15.774264263570615,101531.25,-108.0,885.0,-117.0,99.9375,-3.0,-94.5625,-52.0,975.0,-82.0,2263,2155.697497611512,500.42862707631014,
135,8.55685567855835,0.062006235122680664,16.127410380931508,15.776823294832601,101531.25,-70.0,976.0,-103.0,99.9375,-3.0625,-95.4375,-52.0,974.0,-93.0,2329,2190.35799808921,506.2841758899099,
136,8.617861986160278,0.06100630760192871,16.391747661980858,15.781176377436433,101531.25,15.0,969.0,-96.0,98.6875,-2.6875,-96.25,-46.0,973.0,-106.0,2333,2218.886398471368,502.4187923273481,
137,8.682868242263794,0.06500625610351562,15.383134792559122,15.778196349122696,101531.25,65.0,1009.0,-120.0,97.5,-2.25,-97.0625,-38.0,972.0,-120.0,2399,2254.9091187770946,507.59114930037816,
138,8.744874477386475,0.062006235122680664,16.127410380931508,15.78067247927419,101531.25,-19.0,932.0,-102.0,97.375,-2.375,-97.875,-41.0,970.0,-135.0,2418,2287.527295021676,509.4367057877317,
139,8.807880640029907,0.06300616264343262,15.871463330646657,15.781321941202876,101534.75,-15.0,910.0,-63.0,97.5625,-2.625,-98.625,-45.0,968.0,-147.0,2389,2307.821836017341,490.7034415314589,
140,8.867886781692505,0.060006141662597656,16.664960823890276,15.787301241714761,101534.75,-17.0,953.0,-50.0,97.5625,-2.8125,-99.0,-48.0,967.0,-154.0,2427,2331.657468813873,481.3550860549972,
141,8.927892684936523,0.060005903244018555,16.665027037980316,15.793200587849864,101534.75,-15.0,941.0,-122.0,96.625,-2.25,-98.5,-40.0,969.0,-145.0,2469,2359.1259750510985,478.99591736312686,
142,8.991899013519287,0.06400632858276367,15.623455088615893,15.791992301793373,101534.75,-59.0,913.0,-192.0,96.75,-2.0625,-98.625,-35.0,968.0,-147.0,2558,2398.900780040879,493.23831356844323,
143,9.05590558052063,0.06400656700134277,15.623396892681672,15.790800680121363,101534.75,-113.0,924.0,-181.0,97.0625,-2.125,-98.625,-37.0,968.0,-147.0,2595,2438.1206240327033,505.1892010869317,
144,9.118911981582642,0.06300640106201172,15.871403272435558,15.791357597357567,101534.75,-77.0,1184.0,-157.0,97.3125,-2.4375,-97.5625,-42.0,971.0,-123.0,2652,2480.8964992261626,522.561597530915,
145,9.180917978286743,0.06200599670410156,16.127472392260604,15.793627646269261,101533.75,-122.0,1080.0,-215.0,97.9375,-2.75,-96.125,-49.0,973.0,-104.0,2689,2522.5171993809304,537.429107047081,
146,9.2479248046875,0.06700682640075684,14.923852594050105,15.787325598278752,101533.75,-180.0,881.0,-221.0,99.375,-3.5,-96.4375,-60.0,972.0,-110.0,2647,2547.4137595047446,520.8414556810437,
147,9.306930780410767,0.0590059757232666,16.947436047662723,15.794680702837685,101533.75,10.0,870.0,-215.0,98.8125,-3.375,-97.25,-58.0,971.0,-123.0,2708,2579.531007603796,523.1878109314982,
148,9.368937015533447,0.062006235122680664,16.127410380931508,15.796882800537558,101533.75,0.0,883.0,-178.0,98.75,-3.375,-97.5,-57.0,970.0,-128.0,2778,2619.2248060830366,534.8848476036194,
149,9.43194317817688,0.06300616264343262,15.871463330646657,15.797381004663826,101533.75,-128.0,944.0,-117.0,99.8125,-3.625,-97.75,-62.0,969.0,-133.0,2769,2649.1798448664294,528.9393928051293,
150,9.494949579238892,0.06300640106201172,15.871403272435558,15.797872200183278,101533.75,-114.0,988.0,-75.0,100.75,-3.6875,-97.8125,-63.0,969.0,-133.0,2802,2679.743875893144,524.5548597302381,
151,9.55495548248291,0.060005903244018555,16.665027037980316,15.803318003608508,101533.5,-62.0,973.0,-66.0,100.5,-3.3125,-98.0,-57.0,969.0,-136.0,2830,2709.7951007145152,522.1798211744722,
152,9.618961811065674,0.06400632858276367,15.623455088615893,15.80212116292414,101533.5,-93.0,881.0,-87.0,100.6875,-3.125,-98.5625,-54.0,968.0,-146.0,2900,2747.8360805716125,529.394993089455,
153,9.680968284606934,0.062006473541259766,16.127348370079286,15.804204238875068,101533.5,-39.0,885.0,-82.0,100.5,-2.9375,-98.75,-50.0,967.0,-149.0,2942,2786.66886445729,539.082477170942,
154,9.74597454071045,0.06500625610351562,15.383134792559122,15.801395679489833,101533.5,87.0,1053.0,-149.0,100.0,-2.625,-98.0,-45.0,970.0,-136.0,3013,2831.935091565832,554.8078767699772,
155,9.809980869293213,0.06400632858276367,15.623455088615893,15.800234685999689,101533.5,-73.0,902.0,-200.0,100.9375,-2.6875,-97.375,-46.0,971.0,-126.0,3022,2869.948073252666,558.7165003098422,
156,9.874987602233887,0.06500673294067383,15.383021954243045,15.797488187702657,101533.5,-17.0,1013.0,-160.0,101.875,-2.6875,-97.0625,-47.0,972.0,-120.0,3050,2905.958458602133,558.2397051200184,
157,9.93799376487732,0.06300616264343262,15.871463330646657,15.797957184765663,101531.5,-28.0,993.0,-151.0,101.9375,-2.4375,-96.625,-42.0,973.0,-114.0,3125,2949.766766881706,571.9459304517078,
158,10.002000093460083,0.06400632858276367,15.623455088615893,15.796840484265745,101531.5,-69.0,1210.0,-140.0,102.3125,-2.4375,-95.6875,-41.0,975.0,-94.0,3135,2986.813413505365,572.6309993773929,
159,10.070007085800171,0.06800699234008789,14.704370324145813,15.789462573885144,101531.5,21.0,981.0,-187.0,101.6875,-1.75,-95.375,-30.0,975.0,-92.0,3135,3016.450730804292,558.9477083374171,
160,10.1380136013031,0.06800651550292969,14.704473425886972,15.782184389596225,101531.5,11.0,862.0,-181.0,101.125,-1.125,-96.1875,-19.0,974.0,-105.0,3233,3059.7605846434335,566.7377969893457,
161,10.205020427703857,0.06700682640075684,14.923852594050105,15.776548527323742,101531.5,-16.0,976.0,-141.0,101.125,-1.125,-96.5625,-19.0,973.0,-112.0,3271,3102.008467714747,573.1141352271059,
162,10.273027420043945,0.06800699234008789,14.704370324145813,15.769450754498912,101531.5,39.0,1046.0,-138.0,99.75,-0.6875,-97.0,-12.0,973.0,-119.0,3238,3129.206774171798,555.7961187378035,
163,10.33803391456604,0.06500649452209473,15.38307837319416,15.767021209935956,101528.5,69.0,891.0,-144.0,98.5,-0.3125,-98.0625,-5.0,970.0,-137.0,3257,3154.7654193374387,539.5335710335945,
164,10.406040668487549,0.06800675392150879,14.704421874835665,15.760076788536743,101528.5,-7.0,903.0,-142.0,98.1875,-0.3125,-98.875,-6.0,968.0,-152.0,3313,3186.412335469951,532.1151745152353,
165,10.470046997070312,0.06400632858276367,15.623455088615893,15.759241581835273,101528.5,-10.0,931.0,-133.0,98.4375,-0.625,-99.0625,-11.0,968.0,-154.0,3340,3217.129868375961,526.8950566427247,
166,10.534053325653076,0.06400632858276367,15.623455088615893,15.758416524790903,101528.5,-26.0,970.0,-53.0,98.1875,-0.75,-98.625,-13.0,969.0,-147.0,3401,3253.9038947007693,531.6592858497745,
167,10.59906005859375,0.06500673294067383,15.383021954243045,15.756114134346838,101528.5,17.0,950.0,-67.0,97.0625,-0.4375,-98.0625,-7.0,970.0,-137.0,3556,3314.323115760616,571.4363776669855,
168,10.662066221237183,0.06300616264343262,15.871463330646657,15.75679577616673,101528.5,-55.0,931.0,-199.0,96.1875,-0.0625,-97.6875,-2.0,971.0,-131.0,3612,3373.858492608493,608.7840949520182,
169,10.72807264328003,0.06600642204284668,15.150040996781662,15.753062606810378,101525.5,-65.0,938.0,-188.0,95.9375,-0.3125,-97.3125,-5.0,972.0,-123.0,3537,3406.486794086795,597.3376959619785,
170,10.793079376220703,0.06500673294067383,15.383021954243045,15.750833851416283,101525.5,-51.0,1268.0,-138.0,96.25,-0.875,-95.75,-15.0,975.0,-99.0,3608,3446.789435269436,599.6015677784358,
171,10.855085611343384,0.062006235122680664,16.127410380931508,15.752984925453545,101525.5,-139.0,981.0,-214.0,96.625,-1.3125,-95.375,-23.0,976.0,-92.0,3589,3475.231548215549,585.5111737588691,
172,10.918091773986816,0.06300616264343262,15.871463330646657,15.753668641053475,101525.5,-50.0,829.0,-213.0,96.4375,-1.5,-95.8125,-26.0,975.0,-100.0,3650,3510.1852385724396,582.4366778599988,
173,10.984098196029663,0.06600642204284668,15.150040996781662,15.750041278994845,101525.5,51.0,879.0,-181.0,95.8125,-1.5,-96.125,-25.0,974.0,-104.0,3687,3545.548190857952,577.7680277632733,
174,11.047104835510254,0.06300663948059082,15.871343214678982,15.750733118842819,101525.5,4.0,941.0,-142.0,96.0625,-1.5,-95.9375,-26.0,974.0,-102.0,3655,3567.4385526863616,554.734169554166,
175,11.114111423492432,0.06700658798217773,14.923905695153106,15.745748205303583,101530.75,-96.0,1019.0,-100.0,96.8125,-1.75,-95.875,-30.0,974.0,-101.0,3702,3594.3508421490897,539.424399596991,
176,11.175117492675781,0.06100606918334961,16.391811722774136,15.74927512980075,101530.75,-77.0,982.0,-37.0,96.9375,-1.6875,-96.25,-29.0,974.0,-106.0,3716,3618.680673719272,525.3629614718152,
177,11.238123655319214,0.06300616264343262,15.871463330646657,15.749960173842952,101530.75,-68.0,919.0,-31.0,96.9375,-1.6875,-96.875,-29.0,973.0,-117.0,3716,3638.144538975418,503.7186676931908,
178,11.29612946510315,0.05800580978393555,17.239652436969262,15.757609768008676,101530.75,-37.0,877.0,-42.0,97.0625,-1.8125,-97.125,-31.0,972.0,-122.0,3879,3686.315631180335,536.3920896360685,
179,11.363136291503906,0.06700682640075684,14.923852594050105,15.752693218494295,101530.75,-17.0,928.0,-69.0,97.4375,-2.0,-97.0625,-34.0,972.0,-122.0,3940,3737.052504944268,558.4718431860482,
180,11.423142433166504,0.060006141662597656,16.664960823890276,15.757485390130416,101530.75,-1.0,998.0,-119.0,97.625,-2.0625,-96.375,-35.0,973.0,-109.0,3889,3767.4420039554147,553.2686399152844,
181,11.485148429870605,0.06200599670410156,16.127472392260604,15.759482875228212,101533.75,3.0,996.0,-150.0,98.0625,-2.0,-95.625,-34.0,975.0,-97.0,3950,3803.953603164332,556.8257567476657,
182,11.547154664993286,0.062006235122680664,16.127410380931508,15.761458582672047,101533.75,-2.0,923.0,-173.0,98.375,-1.9375,-95.75,-33.0,975.0,-99.0,4001,3843.3628825314654,564.7001431899529,
183,11.606160640716553,0.0590059757232666,16.947436047662723,15.76748811816392,101533.75,-2.0,1008.0,-184.0,98.625,-1.6875,-95.4375,-29.0,975.0,-93.0,4071,3888.8903060251723,585.3874386784032,
184,11.669166803359985,0.06300616264343262,15.871463330646657,15.768049518927057,101533.75,-33.0,1019.0,-170.0,99.0625,-1.375,-94.6875,-24.0,977.0,-81.0,4118,3934.712244820138,599.5748169429063,
185,11.73517370223999,0.06600689888000488,15.149931552123329,15.76457278725133,101533.75,-4.0,1131.0,-147.0,99.125,-1.25,-94.125,-21.0,977.0,-71.0,4207,3989.169795856111,622.1201523177407,
186,11.799180030822754,0.06400632858276367,15.623455088615893,15.763807274244147,101533.75,29.0,857.0,-154.0,98.5625,-0.8125,-94.6875,-13.0,977.0,-80.0,4203,4031.9358366848887,626.7234689065991,
187,11.863186359405518,0.06400632858276367,15.623455088615893,15.763050021695086,101534.5,44.0,859.0,-144.0,98.125,-0.4375,-95.4375,-7.0,976.0,-93.0,4226,4070.7486693479113,624.690176813209,
188,11.92719292640686,0.06400656700134277,15.623396892681672,15.762300581536426,101534.5,-1.0,990.0,-122.0,98.0,-0.5,-95.875,-9.0,975.0,-100.0,4301,4116.798935478329,634.1673176088019,
189,11.990199089050293,0.06300616264343262,15.871463330646657,15.76287421053741,101534.5,29.0,1079.0,-114.0,97.4375,-0.5625,-96.1875,-9.0,974.0,-104.0,,4116.798935478329,634.1673176088019,
190,12.039203882217407,0.04900479316711426,20.406167139402843,15.781774431168232,101534.5,73.0,986.0,-131.0,96.875,-0.5,-96.8125,-8.0,973.0,-116.0,4311,4155.639148382664,650.0085734735054,
191,12.101210117340088,0.062006235122680664,16.127410380931508,15.783545459334842,101534.5,15.0,947.0,-105.0,97.0625,-0.6875,-97.5,-11.0,972.0,-126.0,4315,4187.511318706131,636.4092731799045,
192,12.162216186523438,0.06100606918334961,16.391811722774136,15.786596542556861,101534.5,-31.0,895.0,-74.0,97.375,-0.8125,-98.25,-14.0,970.0,-140.0,4353,4220.609054964905,627.0215319823009,
193,12.228222608566284,0.06600642204284668,15.150040996781662,15.783160495033592,101532.25,0.0,931.0,-63.0,97.25,-1.0,-98.5625,-17.0,969.0,-146.0,4306,4237.6872439719245,590.1929051447836,
194,12.289228677749634,0.06100606918334961,16.391811722774136,15.786181955524054,101532.25,42.0,959.0,-101.0,96.25,-0.6875,-98.4375,-12.0,969.0,-144.0,4358,4261.74979517754,570.6164955235118,
195,12.3482346534729,0.0590059757232666,16.947436047662723,15.791731002225236,101532.25,-56.0,904.0,-168.0,96.1875,-0.5625,-98.5,-9.0,969.0,-145.0,4470,4303.399836142033,584.1409865339873,
196,12.40924072265625,0.06100606918334961,16.391811722774136,15.794681107455007,101532.25,-67.0,959.0,-187.0,96.5625,-0.6875,-98.4375,-12.0,969.0,-144.0,4461,4334.9198689136265,577.3939321493523,
197,12.468246698379517,0.0590059757232666,16.947436047662723,15.800136520045266,101532.25,-68.0,1106.0,-162.0,96.3125,-0.8125,-98.0,-14.0,971.0,-136.0,4475,4362.935895130901,567.1345201971078,
198,12.530252933502197,0.062006235122680664,16.127410380931508,15.801756042019427,101532.25,-57.0,997.0,-238.0,95.8125,-0.5,-96.9375,-9.0,973.0,-118.0,4550,4400.3487161047215,570.7582599127088,
199,12.593259334564209,0.06300640106201172,15.871403272435558,15.8021044999695,101531.25,-179.0,883.0,-227.0,96.1875,-0.75,-97.125,-13.0,972.0,-121.0,4601,4440.478972883778,577.3747827981172,
200,12.65526556968689,0.062006235122680664,16.127410380931508,15.803698381412023,101531.25,-22.0,923.0,-188.0,95.125,-0.6875,-97.3125,-11.0,972.0,-125.0,4643,4480.983178307022,584.9600988197269,
201,12.718271732330322,0.06300616264343262,15.871463330646657,15.804034088141904,101531.25,96.0,979.0,-203.0,92.8125,0.125,-97.4375,3.0,972.0,-127.0,4732,4531.186542645618,606.1441745552659,
202,12.783278226852417,0.06500649452209473,15.38307837319416,15.801893412261103,101531.25,-9.0,938.0,-171.0,93.0,0.0,-97.5,0.0,972.0,-129.0,4793,4583.5492341164945,626.0796957725273,
203,12.845284700393677,0.062006473541259766,16.127348370079286,15.803464441218539,101531.25,-58.0,967.0,-121.0,93.1875,0.0,-97.6875,0.0,971.0,-131.0,4840,4634.839387293196,646.1891430188134,
204,12.907290697097778,0.06200599670410156,16.127472392260604,15.805020959655746,101531.25,-30.0,930.0,-49.0,92.875,0.1875,-98.0625,3.0,970.0,-137.0,4817,4671.271509834556,640.3260337646568,
205,12.972297191619873,0.06500649452209473,15.38307837319416,15.80290653011175,101535.75,5.0,895.0,-72.0,92.625,0.3125,-98.3125,6.0,970.0,-142.0,4901,4717.217207867645,646.9720577636028,
206,13.03930401802063,0.06700682640075684,14.923852594050105,15.798389217346498,101535.75,-38.0,900.0,-18.0,93.125,0.0,-98.0,0.0,971.0,-136.0,4873,4748.373766294117,628.7724405166999,
207,13.103310346603394,0.06400632858276367,15.623455088615893,15.797534708750755,101535.75,-3.0,989.0,-44.0,93.3125,-0.125,-97.0625,-2.0,972.0,-123.0,4943,4787.299013035294,626.7098808924371,
208,13.16931676864624,0.06600642204284668,15.150040996781662,15.794289381451463,101535.75,-16.0,953.0,-120.0,93.875,-0.5625,-96.3125,-9.0,974.0,-108.0,5014,4832.639210428235,632.7294777337167,
209,13.235323429107666,0.06600666046142578,15.149986274254836,15.791076139503975,101535.75,61.0,995.0,-214.0,94.125,-0.875,-96.125,-15.0,974.0,-105.0,5046,4875.311368342588,634.1047906298736,
210,13.296329736709595,0.06100630760192871,16.391747661980858,15.79383214453646,101535.75,71.0,955.0,-226.0,95.5,-1.25,-96.0625,-21.0,974.0,-103.0,5093,4918.849094674071,642.0602539470914,
211,13.358335733413696,0.06200599670410156,16.127472392260604,15.795380817703057,101540.25,-1.0,1180.0,-182.0,97.3125,-1.8125,-95.5625,-31.0,975.0,-95.0,5126,4960.279275739257,644.6706386858966,
212,13.420341968536377,0.062006235122680664,16.127410380931508,15.79691489956278,101540.25,84.0,1145.0,-218.0,98.75,-2.25,-94.4375,-38.0,976.0,-76.0,5224,5013.023420591406,665.2662217394966,
213,13.48434829711914,0.06400632858276367,15.623455088615893,15.796091535658888,101540.25,-25.0,801.0,-234.0,100.25,-2.1875,-94.625,-37.0,976.0,-79.0,5271,5064.618736473125,679.349309611646,
214,13.54535436630249,0.06100606918334961,16.391811722774136,15.798774562323697,101540.25,-72.0,1052.0,-139.0,103.875,-2.8125,-95.9375,-48.0,973.0,-103.0,,5064.618736473125,679.349309611646,
215,13.692369222640991,0.14701485633850098,6.802033650922359,15.702176628752252,101540.25,36.0,867.0,-122.0,102.8125,-2.25,-97.25,-39.0,971.0,-124.0,5238,5099.2949891785,635.0012824294664,
216,13.758375883102417,0.06600666046142578,15.149986274254836,15.699527461325145,101541.25,46.0,887.0,-135.0,102.0625,-1.75,-98.25,-30.0,969.0,-141.0,5252,5129.8359913428,617.7707305456332,
217,13.82138204574585,0.06300616264343262,15.871463330646657,15.700311248309028,101541.25,-25.0,983.0,-135.0,102.1875,-1.625,-98.8125,-28.0,968.0,-150.0,5308,5165.468793074241,612.5481280959466,
218,13.885388612747192,0.06400656700134277,15.623396892681672,15.699956701238426,101541.25,-37.0,923.0,-99.0,102.8125,-1.8125,-99.5,-31.0,966.0,-162.0,5393,5210.975034459393,622.3895223117925,
219,13.948394775390625,0.06300616264343262,15.871463330646657,15.7007314122185,101541.25,-48.0,993.0,-81.0,102.5625,-1.6875,-99.75,-29.0,966.0,-166.0,5435,5255.7800275675145,631.2626505951557,
220,14.009400844573975,0.06100606918334961,16.391811722774136,15.703740826661328,101541.25,-5.0,1004.0,-156.0,101.3125,-0.9375,-99.625,-17.0,966.0,-164.0,5482,5301.024022054013,642.2994894565312,
221,14.07440733909607,0.06500649452209473,15.38307837319416,15.702259759535549,101541.25,-112.0,939.0,-207.0,101.25,-0.875,-99.3125,-15.0,967.0,-159.0,5496,5340.01921764321,638.0561555035441,
222,14.133413314819336,0.0590059757232666,16.947436047662723,15.707458280246138,101537.25,-92.0,1014.0,-198.0,100.8125,-0.625,-99.0,-11.0,968.0,-154.0,5548,5381.615374114569,644.7453601158824,
223,14.195419311523438,0.06200599670410156,16.127472392260604,15.709292913875037,101537.25,-38.0,1040.0,-207.0,99.75,-0.5,-98.625,-9.0,969.0,-148.0,5585,5422.292299291656,645.8724228838455,
224,14.25942587852478,0.06400656700134277,15.623396892681672,15.70890735070563,101537.25,-48.0,1018.0,-250.0,98.625,-0.375,-98.5,-6.0,969.0,-145.0,5622,5462.233839433326,643.6874340092896,
225,14.32843279838562,0.06900691986083984,14.491300322005555,15.703043254343259,101537.25,-98.0,877.0,-250.0,98.4375,-0.75,-98.8125,-13.0,968.0,-150.0,5753,5520.387071546661,663.5902857333249,
226,14.390438795089722,0.06200599670410156,16.127472392260604,15.704872048593494,101537.25,28.0,969.0,-222.0,97.375,-0.625,-98.625,-10.0,969.0,-147.0,5730,5562.309657237329,664.8417914938349,
227,14.453445434570312,0.06300663948059082,15.871343214678982,15.705597743293275,101537.25,32.0,917.0,-204.0,96.75,-0.4375,-98.625,-8.0,969.0,-147.0,5782,5606.247725789863,668.0932289631872,
228,14.515451431274414,0.06200599670410156,16.127472392260604,15.707399875195081,101534.75,-28.0,912.0,-146.0,97.1875,-0.5625,-98.75,-10.0,969.0,-149.0,5721,5629.19818063189,638.2971887523304,
229,14.575457572937012,0.060006141662597656,16.664960823890276,15.71134208679636,101534.75,-49.0,923.0,-116.0,97.3125,-0.625,-98.9375,-11.0,968.0,-153.0,5796,5662.558544505512,630.0623855795612,
230,14.636463642120361,0.06100606918334961,16.391811722774136,15.714178344153646,101534.75,-43.0,911.0,-85.0,97.25,-0.625,-98.9375,-11.0,968.0,-152.0,5777,5685.446835604411,604.5742028565246,
231,14.700469970703125,0.06400632858276367,15.623455088615893,15.713783332122357,101534.75,-28.0,889.0,-69.0,97.0625,-0.625,-98.1875,-11.0,970.0,-139.0,5805,5709.3574684835285,581.4734524635999,
232,14.764476299285889,0.06400632858276367,15.623455088615893,15.713391744969723,101534.75,3.0,932.0,-74.0,96.9375,-0.625,-97.375,-11.0,972.0,-126.0,5833,5734.0859747868235,561.9605779810485,
233,14.8274827003479,0.06300640106201172,15.871403272435558,15.714063183127712,101534.75,-9.0,1060.0,-113.0,97.0,-0.5625,-96.125,-10.0,974.0,-104.0,5946,5776.468779829459,573.0319792478119,
234,14.887488842010498,0.060006141662597656,16.664960823890276,15.717895911342909,101536.75,23.0,959.0,-176.0,97.0,-0.5625,-95.75,-9.0,975.0,-99.0,5965,5814.175023863568,578.5660892874776,
235,14.95049500465393,0.06300616264343262,15.871463330646657,15.718543093512755,101536.75,38.0,976.0,-181.0,97.3125,-0.6875,-95.75,-12.0,975.0,-99.0,6007,5852.740019090854,581.9177711183733,
236,15.015501499176025,0.06500649452209473,15.38307837319416,15.717090768693305,101536.75,64.0,992.0,-201.0,97.25,-0.1875,-96.4375,-3.0,974.0,-110.0,6049,5891.992015272684,584.1076473634765,
237,15.08050799369812,0.06500649452209473,15.38307837319416,15.715650964744565,101536.75,-11.0,1070.0,-200.0,98.625,-0.4375,-96.125,-8.0,975.0,-104.0,6054,5924.393612218148,575.540513150001,
238,15.1425142288208,0.062006235122680664,16.127410380931508,15.717337055362561,101536.75,9.0,1106.0,-205.0,99.5625,-0.75,-95.5,-13.0,975.0,-94.0,6072,5953.914889774518,565.5966376470979,
239,15.207520723342896,0.06500649452209473,15.38307837319416,15.715908223826728,101536.75,-27.0,846.0,-204.0,99.9375,-0.625,-96.25,-11.0,974.0,-107.0,6101,5983.331911819614,554.2894094449573,
240,15.27152705192566,0.06400632858276367,15.623455088615893,15.715520732403592,101536.0,-60.0,907.0,-163.0,100.25,-0.6875,-97.1875,-12.0,972.0,-123.0,6176,6021.865529455691,559.0632929543763,
241,15.337533712387085,0.06600666046142578,15.149986274254836,15.71308689645198,101536.0,53.0,1087.0,-141.0,99.125,-0.625,-97.75,-10.0,971.0,-133.0,6208,6059.092423564553,559.5556571371789,
242,15.398539781570435,0.06100606918334961,16.391811722774136,15.715775874387448,101536.0,43.0,973.0,-142.0,98.1875,-0.375,-98.5,-6.0,969.0,-145.0,6208,6088.873938851643,552.4173905639507,
243,15.461545944213867,0.06300616264343262,15.871463330646657,15.716410304426075,101536.0,41.0,896.0,-141.0,96.8125,-0.125,-99.6875,-2.0,966.0,-165.0,6246,6120.299151081314,547.0520618636572,
244,15.528552770614624,0.06700682640075684,14.923852594050105,15.712990360681397,101536.0,2.0,922.0,-136.0,96.625,-0.0625,-100.25,-2.0,964.0,-174.0,6353,6166.839320865052,561.8027190327483,
245,15.589558839797974,0.06100606918334961,16.391811722774136,15.715646768306817,101536.0,-40.0,946.0,-88.0,96.75,-0.1875,-100.75,-3.0,963.0,-182.0,6353,6204.071456692042,566.652663180751,
246,15.654565334320068,0.06500649452209473,15.38307837319416,15.71426575867203,101535.5,16.0,994.0,-82.0,95.5625,-0.0625,-100.875,-2.0,962.0,-185.0,6475,6258.257165353634,593.3416971675092,
247,15.715571403503418,0.06100606918334961,16.391811722774136,15.716895915406369,101535.5,22.0,914.0,-169.0,94.1875,0.375,-100.75,6.0,963.0,-183.0,6578,6322.205732282908,638.8308143553455,
248,15.777577638626099,0.062006235122680664,16.127410380931508,15.71850924649265,101535.5,-101.0,947.0,-249.0,94.125,0.5,-100.4375,8.0,964.0,-178.0,6541,6365.964585826327,645.5194318091903,
249,15.841584205627441,0.06400656700134277,15.623396892681672,15.718124953156337,101535.5,-79.0,1046.0,-227.0,94.5,0.1875,-99.75,4.0,966.0,-167.0,6621,6416.971668661062,660.6578785747672,
250,15.904590368270874,0.06300616264343262,15.871463330646657,15.718732404371863,101535.5,0.0,1300.0,-231.0,93.5625,0.0625,-98.25,2.0,970.0,-141.0,6667,6466.97733492885,673.9584005666657,
251,15.966596603393555,0.062006235122680664,16.127410380931508,15.720319504198674,101535.5,-132.0,856.0,-283.0,94.4375,-0.4375,-98.75,-7.0,969.0,-149.0,6766,6526.78186794308,703.0117851660452,
252,16.03060293197632,0.06400632858276367,15.623455088615893,15.719932747965109,101537.25,-104.0,910.0,-218.0,94.8125,-1.125,-99.0,-19.0,968.0,-154.0,6761,6573.6254943544645,705.8965359920571,
253,16.096609592437744,0.06600666046142578,15.149986274254836,15.717595593475814,101537.25,20.0,937.0,-211.0,93.9375,-1.0625,-99.25,-18.0,967.0,-158.0,6808,6620.500395483572,706.3222932641545,
254,16.159615993499756,0.06300640106201172,15.871403272435558,15.71819529017101,101537.25,5.0,910.0,-174.0,93.375,-1.25,-99.75,-21.0,966.0,-167.0,6836,6663.600316386858,704.095686504352,
255,16.23262310028076,0.07300710678100586,13.697296661811674,15.709106188487151,101537.25,-89.0,937.0,-141.0,93.6875,-1.625,-100.5,-28.0,963.0,-178.0,6854,6701.680253109487,685.8453368692035,
256,16.29262924194336,0.060006141662597656,16.664960823890276,15.712626623882144,101537.25,-72.0,946.0,-113.0,93.5,-1.8125,-100.5625,-31.0,963.0,-180.0,6869,6735.1442024875905,673.028343722157,
257,16.35363531112671,0.06100606918334961,16.391811722774136,15.715160275412403,101537.25,-35.0,957.0,-80.0,92.875,-1.6875,-100.5625,-29.0,963.0,-179.0,6878,6763.715361990073,652.5588160765452,
258,16.41464138031006,0.06100606918334961,16.391811722774136,15.717675093985306,101534.75,-8.0,865.0,-75.0,92.5625,-1.625,-100.5,-28.0,963.0,-179.0,6953,6801.572289592059,649.3572974343356,
259,16.474647283554077,0.060005903244018555,16.665027037980316,15.721125650959971,101534.75,-28.0,945.0,-129.0,92.3125,-1.5625,-99.625,-27.0,966.0,-164.0,6990,6839.257831673647,647.2246254639633,
260,16.544654369354248,0.0700070858001709,14.284268350412592,15.71504572991258,101534.75,-11.0,995.0,-199.0,91.75,-1.25,-98.6875,-21.0,969.0,-148.0,6986,6868.606265338918,624.4242531314683,
261,16.609660863876343,0.06500649452209473,15.38307837319416,15.713746483989809,101534.75,-33.0,876.0,-235.0,91.6875,-1.1875,-98.5625,-20.0,969.0,-146.0,7014,6897.685012271135,606.7138921235784,
262,16.671667098999023,0.062006235122680664,16.127410380931508,15.715285006844374,101534.75,55.0,1089.0,-218.0,91.25,-1.1875,-97.875,-20.0,971.0,-132.0,7080,6934.148009816909,604.8478754251798,
263,16.736673593521118,0.06500649452209473,15.38307837319416,15.713994691382947,101538.25,-18.0,1162.0,-207.0,91.75,-1.5,-96.8125,-27.0,973.0,-114.0,7112,6969.7184078535265,599.0813099589624,
264,16.7986798286438,0.062006235122680664,16.127410380931508,15.715520665489903,101538.25,-35.0,1000.0,-242.0,92.3125,-1.5625,-96.4375,-27.0,974.0,-109.0,7126,7000.974726282821,589.5815263936972,
265,16.86168599128723,0.06300616264343262,15.871463330646657,15.716103368128833,101538.25,-32.0,783.0,-242.0,92.4375,-1.25,-97.125,-21.0,972.0,-121.0,7094,7019.5797810262575,560.1523181668394,
266,16.926692485809326,0.06500649452209473,15.38307837319416,15.714824394842877,101538.25,-32.0,919.0,-208.0,92.5,-1.125,-97.9375,-19.0,971.0,-135.0,7122,7040.063824821007,535.647851459613,
267,16.988698959350586,0.062006473541259766,16.127348370079286,15.716330052045752,101538.25,-39.0,1068.0,-142.0,92.375,-1.25,-98.1875,-22.0,970.0,-139.0,7117,7055.451059856807,506.89859630111476,
268,17.05270528793335,0.06400632858276367,15.623455088615893,15.715981451320761,101538.25,79.0,994.0,-158.0,90.8125,-0.75,-98.875,-13.0,968.0,-151.0,7103,7064.960847885446,471.0663112877737,
269,17.11471128463745,0.06200599670410156,16.127472392260604,15.717472268519098,101538.25,31.0,902.0,-153.0,89.5625,-0.25,-99.875,-4.0,966.0,-168.0,7164,7084.768678308357,455.9047039886043,
270,17.17471742630005,0.060006141662597656,16.664960823890276,15.720782665486109,101537.25,38.0,923.0,-140.0,89.3125,0.0,-100.625,-1.0,963.0,-181.0,7220,7111.814942646686,455.38672715282706,
271,17.232723236083984,0.05800580978393555,17.239652436969262,15.725895221977861,101537.25,-59.0,968.0,-96.0,89.875,-0.1875,-101.3125,-3.0,961.0,-191.0,7234,7136.25195411735,451.97661287279135,
272,17.296729564666748,0.06400632858276367,15.623455088615893,15.7255161435624,101537.25,-21.0,999.0,-120.0,89.5625,-0.125,-101.375,-2.0,961.0,-193.0,7290,7167.00156329388,454.820465381714,
273,17.35873579978943,0.062006235122680664,16.127410380931508,15.726951729014255,101537.25,-12.0,927.0,-220.0,88.4375,0.25,-101.5625,4.0,960.0,-197.0,7374,7208.401250635105,476.1053935829605,
274,17.42074179649353,0.06200599670410156,16.127472392260604,15.728377310267643,101537.25,-81.0,838.0,-252.0,88.5625,0.0625,-101.875,1.0,959.0,-202.0,7417,7250.121000508085,495.77826565351506,
275,17.48374843597412,0.06300663948059082,15.871343214678982,15.728892520219915,101537.25,-100.0,1034.0,-209.0,89.0625,-0.5625,-101.4375,-9.0,960.0,-195.0,7464,7292.896800406468,514.091379235131,
276,17.54475450515747,0.06100606918334961,16.391811722774136,15.731197602044919,101542.75,0.0,1037.0,-256.0,88.3125,-0.4375,-99.9375,-8.0,965.0,-169.0,7543,7342.917440325175,544.6751324916308,
277,17.6127610206604,0.06800651550292969,14.704473425886972,15.72723320750614,101542.75,-151.0,875.0,-255.0,89.4375,-1.125,-100.125,-19.0,965.0,-173.0,7529,7380.133952260141,544.9325403176585,
278,17.67376732826233,0.06100630760192871,16.391747661980858,15.729526978407536,101542.75,-68.0,921.0,-257.0,89.5,-1.5625,-100.3125,-27.0,964.0,-176.0,7604,7424.907161808113,563.8304015786282,
279,17.737773895263672,0.06400656700134277,15.623396892681672,15.729144009130614,101542.75,49.0,917.0,-270.0,88.6875,-1.4375,-100.75,-25.0,962.0,-183.0,7661,7472.125729446491,581.2188037125966,
280,17.79877996444702,0.06100606918334961,16.391811722774136,15.731415330674276,101542.75,-25.0,872.0,-213.0,89.0,-1.75,-101.3125,-30.0,960.0,-193.0,7740,7525.700583557194,610.9158155071093,
281,17.861786127090454,0.06300616264343262,15.871463330646657,15.731909339896049,101542.75,-62.0,904.0,-170.0,89.5625,-2.0,-101.8125,-34.0,959.0,-201.0,7722,7564.960466845756,612.135413754387,
282,17.921792030334473,0.060005903244018555,16.665027037980316,15.735033612860034,101537.5,-68.0,945.0,-137.0,90.0625,-2.1875,-101.875,-37.0,958.0,-202.0,,7564.960466845756,612.135413754387,
283,17.968796968460083,0.04700493812561035,21.274360522031113,15.749524049759072,101537.5,-52.0,907.0,-129.0,90.6875,-2.25,-101.6875,-38.0,959.0,-198.0,7801,7612.168373476605,651.3536748944543,
284,18.0338032245636,0.06500625610351562,15.383134792559122,15.748203330352826,101537.5,-52.0,829.0,-136.0,91.1875,-2.3125,-101.8125,-39.0,958.0,-201.0,7858,7661.334698781285,661.8515283466791,
285,18.09680962562561,0.06300640106201172,15.871403272435558,15.748632267006428,101537.5,-52.0,947.0,-138.0,91.1875,-2.0625,-100.875,-36.0,962.0,-185.0,7933,7715.667759025028,681.9005665274103,
286,18.160816192626953,0.06400656700134277,15.623396892681672,15.748190883409313,101537.5,12.0,966.0,-198.0,91.0,-1.8125,-99.625,-31.0,966.0,-164.0,7900,7752.534207220023,671.3084250920581,
287,18.22782254219055,0.06700634956359863,14.923958796633991,15.745160966742077,101537.5,-45.0,920.0,-232.0,91.375,-1.875,-99.125,-32.0,967.0,-156.0,7923,7786.627365776019,655.0580719365325,
288,18.290828943252563,0.06300640106201172,15.871403272435558,15.745595833492413,101538.5,-8.0,1089.0,-199.0,91.5625,-2.0,-98.0625,-35.0,970.0,-134.0,7975,7824.301892620816,649.347025608076,
289,18.35683560371399,0.06600666046142578,15.149986274254836,15.743454168186208,101538.5,4.0,1220.0,-186.0,91.875,-2.1875,-96.6875,-38.0,973.0,-114.0,8021,7863.641514096653,644.0117955865992,
290,18.419841766357422,0.06300616264343262,15.871463330646657,15.743892031128363,101538.5,-27.0,841.0,-206.0,92.0625,-2.25,-96.5,-38.0,973.0,-111.0,7994,7889.713211277322,620.9902146050115,
291,18.482848167419434,0.06300640106201172,15.871403272435558,15.744326705716226,101538.5,-26.0,843.0,-226.0,92.375,-2.1875,-96.75,-38.0,973.0,-115.0,8073,7926.3705690218585,617.0715639110574,
292,18.543854236602783,0.06100606918334961,16.391811722774136,15.746456819296814,101538.5,-47.0,1025.0,-202.0,92.75,-2.4375,-96.625,-42.0,973.0,-113.0,8134,7967.8964552174875,623.4328583339613,
293,18.608860969543457,0.06500673294067383,15.383021954243045,15.745187224491815,101538.5,39.0,1055.0,-181.0,91.8125,-2.1875,-96.75,-37.0,973.0,-115.0,8120,7998.31716417399,607.8858158747169,
294,18.674867391586304,0.06600642204284668,15.150040996781662,15.743083676859602,101539.75,16.0,956.0,-177.0,91.0,-1.9375,-97.4375,-33.0,971.0,-127.0,8176,8033.853731339193,600.9352792310156,
295,18.736873626708984,0.062006235122680664,16.127410380931508,15.744355535359125,101539.75,-31.0,955.0,-148.0,90.375,-1.625,-98.25,-28.0,970.0,-140.0,8227,8072.482985071354,603.1407340726838,
296,18.796879529953003,0.060005903244018555,16.665027037980316,15.747294625595767,101539.75,-111.0,959.0,-116.0,90.375,-1.75,-99.125,-31.0,967.0,-155.0,8227,8103.386388057084,594.3272652976951,
297,18.857885599136353,0.06100606918334961,16.391811722774136,15.749379666064042,101539.75,-40.0,1017.0,-128.0,89.6875,-1.8125,-99.5,-31.0,966.0,-162.0,8359,8154.509110445668,618.6939427828567,
298,18.919891834259033,0.062006235122680664,16.127410380931508,15.750618587596735,101539.75,-68.0,931.0,-197.0,88.875,-1.625,-99.5625,-27.0,966.0,-162.0,8345,8192.607288356536,618.2670434980016,
299,18.982898235321045,0.06300640106201172,15.871403272435558,15.75101948572097,101539.75,-131.0,845.0,-199.0,89.0625,-2.0625,-99.625,-35.0,966.0,-164.0,8345,8223.085830685228,604.8140627936684,
300,19.045904397964478,0.06300616264343262,15.871463330646657,15.751417928573787,101542.75,-111.0,1115.0,-139.0,89.4375,-2.8125,-98.0,-48.0,969.0,-136.0,8424,8263.268664548183,608.1086939320369,
301,19.111911058425903,0.06600666046142578,15.149986274254836,15.74934076868768,101542.75,-27.0,1107.0,-160.0,89.125,-3.3125,-96.3125,-57.0,973.0,-108.0,8429,8296.414931638546,597.5143736850129,
302,19.175917625427246,0.06400656700134277,15.623396892681672,15.748920385408223,101542.75,-130.0,908.0,-175.0,89.6875,-3.6875,-96.0,-63.0,973.0,-102.0,8429,8322.931945310836,579.1915192175969,
303,19.23992395401001,0.06400632858276367,15.623455088615893,15.748502994308787,101542.75,-101.0,893.0,-156.0,90.0,-3.9375,-96.1875,-67.0,972.0,-105.0,8467,8351.74555624867,566.2891829386471,
304,19.306930780410767,0.06700682640075684,14.923852594050105,15.74564095441027,101542.75,-46.0,904.0,-152.0,89.8125,-3.8125,-96.3125,-65.0,972.0,-108.0,8490,8379.396444998936,550.9260434251271,
305,19.374937295913696,0.06800651550292969,14.704473425886972,15.741986430290359,101542.75,-48.0,928.0,-134.0,90.0,-3.375,-96.25,-57.0,973.0,-106.0,8495,8402.51715599915,529.8312271316406,
306,19.43994402885437,0.06500673294067383,15.383021954243045,15.740786061205194,101537.25,-112.0,944.0,-118.0,90.5,-2.9375,-96.125,-50.0,973.0,-104.0,8504,8422.813724799322,508.0703607633606,
307,19.506950616836548,0.06700658798217773,14.923905695153106,15.737980068244328,101537.25,-115.0,955.0,-84.0,90.875,-2.6875,-96.0,-46.0,974.0,-103.0,8555,8449.250979839457,496.71803479279305,
308,19.571956872940063,0.06500625610351562,15.383134792559122,15.736801485897246,101537.25,-34.0,935.0,-86.0,91.0,-2.4375,-95.875,-42.0,974.0,-100.0,8583,8476.000783871566,488.19581542356235,
309,19.634963512420654,0.06300663948059082,15.871343214678982,15.737233216885443,101537.25,-30.0,944.0,-47.0,91.8125,-2.1875,-95.75,-37.0,974.0,-98.0,8658,8512.400627097253,497.1476743607443,
310,19.698969841003418,0.06400632858276367,15.623455088615893,15.736863526474101,101537.25,-49.0,1022.0,-48.0,93.375,-2.3125,-94.625,-39.0,976.0,-79.0,8677,8545.320501677803,498.86512512787857,
311,19.76197600364685,0.06300616264343262,15.871463330646657,15.737292664590244,101541.75,-10.0,944.0,-115.0,94.0,-2.25,-94.125,-38.0,977.0,-70.0,8719,8580.056401342243,504.10956839320846,
312,19.8229820728302,0.06100606918334961,16.391811722774136,15.73930697478831,101541.75,-52.0,937.0,-141.0,94.9375,-2.1875,-94.125,-38.0,977.0,-70.0,8738,8611.645121073794,505.47824619419487,
313,19.890989065170288,0.06800699234008789,14.704370324145813,15.735768541951103,101541.75,-24.0,925.0,-129.0,95.375,-1.9375,-93.875,-34.0,977.0,-66.0,8790,8647.316096859035,507.3823453517567,
314,19.958995580673218,0.06800651550292969,14.704473425886972,15.732254598225065,101541.75,-23.0,1231.0,-96.0,95.5625,-2.25,-92.6875,-38.0,978.0,-46.0,8851,8688.05287748723,516.5454016369284,
315,20.03000283241272,0.07100725173950195,14.083068637392303,15.726408160575211,101541.75,-28.0,893.0,-171.0,95.0,-1.625,-92.3125,-29.0,979.0,-38.0,8949,8740.242301989783,538.389586214783,
316,20.097009658813477,0.06700682640075684,14.923852594050105,15.723732304692367,101541.75,-41.0,889.0,-139.0,95.0625,-1.5,-92.8125,-25.0,979.0,-48.0,9020,8796.193841591827,568.0518805364098,
317,20.157015562057495,0.060005903244018555,16.665027037980316,15.726534467567912,101539.75,-69.0,1020.0,-81.0,95.0625,-1.5625,-93.1875,-26.0,978.0,-54.0,9020,8840.95507327346,585.841406105542,
318,20.22102189064026,0.06400632858276367,15.623455088615893,15.726208186698678,101539.75,0.0,1063.0,-79.0,94.3125,-1.625,-93.625,-28.0,978.0,-62.0,9001,8872.964058618769,577.2663599924466,
319,20.286028623580933,0.06500673294067383,15.383021954243045,15.725108443807837,101539.75,35.0,900.0,-124.0,93.25,-1.4375,-94.5,-25.0,977.0,-77.0,9010,8900.371246895014,561.7002618889577,
320,20.349034786224365,0.06300616264343262,15.871463330646657,15.725561598461152,101539.75,-3.0,982.0,-83.0,92.875,-1.4375,-95.25,-25.0,976.0,-90.0,9057,8931.696997516012,555.2487859286763,
321,20.41304111480713,0.06400632858276367,15.623455088615893,15.72524143730619,101539.75,-86.0,986.0,-25.0,93.0625,-1.75,-95.6875,-30.0,975.0,-98.0,9104,8966.157598012811,553.5632717546562,
322,20.479047775268555,0.06600666046142578,15.149986274254836,15.723387314368303,101539.75,-19.0,1013.0,-13.0,92.3125,-1.875,-96.0,-32.0,974.0,-102.0,9165,9005.926078410248,558.456137796105,
323,20.539053916931152,0.060006141662597656,16.664960823890276,15.726138180772697,101545.75,26.0,963.0,-108.0,90.875,-1.4375,-96.125,-24.0,974.0,-104.0,9156,9035.9408627282,552.6300444961117,
324,20.602060079574585,0.06300616264343262,15.871463330646657,15.726582620794412,101545.75,-90.0,873.0,-158.0,90.8125,-1.4375,-96.3125,-25.0,974.0,-108.0,9160,9060.752690182559,536.7470410073204,
325,20.665066480636597,0.06300640106201172,15.871403272435558,15.72702416924372,101545.75,-124.0,878.0,-122.0,91.5625,-2.1875,-96.125,-39.0,974.0,-101.0,9212,9091.002152146048,531.0824778662618,
326,20.730072736740112,0.06500625610351562,15.383134792559122,15.725945786105564,101545.75,41.0,1245.0,-140.0,90.5,-1.75,-94.25,-30.0,977.0,-73.0,9259,9124.601721716837,529.6609008475783,
327,20.795079469680786,0.06500673294067383,15.383021954243045,15.724873784529933,101545.75,-186.0,836.0,-148.0,91.75,-2.375,-94.375,-41.0,976.0,-74.0,9367,9173.08137737347,551.2711714928327,
328,20.85908579826355,0.06400632858276367,15.623455088615893,15.724562580173332,101545.75,-95.0,932.0,-136.0,91.5625,-2.5,-94.0625,-42.0,977.0,-69.0,9418,9222.065101898776,572.673556362974,
329,20.922091960906982,0.06300616264343262,15.871463330646657,15.72500496674701,101544.25,11.0,950.0,-143.0,90.5,-2.1875,-93.9375,-37.0,977.0,-68.0,9460,9269.65208151902,590.9337009325701,
330,20.985098361968994,0.06300640106201172,15.871403272435558,15.72544451819461,101544.25,-66.0,933.0,-99.0,90.375,-2.25,-93.6875,-38.0,977.0,-64.0,9488,9313.321665215217,601.1500881974853,
331,21.047104597091675,0.062006235122680664,16.127410380931508,15.726628737604988,101544.25,-54.0,938.0,-45.0,90.3125,-2.125,-93.75,-37.0,977.0,-64.0,9483,9347.257332172174,595.7645221342831,
332,21.11111092567444,0.06400632858276367,15.623455088615893,15.726315927611164,101544.25,-51.0,968.0,-16.0,90.1875,-1.875,-93.875,-32.0,977.0,-67.0,9483,9374.405865737739,578.6034594091938,
333,21.175117254257202,0.06400632858276367,15.623455088615893,15.726005008687789,101544.25,-55.0,954.0,-21.0,90.125,-1.5,-94.5,-25.0,977.0,-77.0,9525,9404.524692590192,567.799127333384,
334,21.23612332344055,0.06100606918334961,16.391811722774136,15.727917704797322,101544.25,2.0,929.0,-33.0,89.5625,-0.75,-94.6875,-13.0,977.0,-80.0,9582,9440.019754072155,569.2020510901082,
335,21.29612946510315,0.060006141662597656,16.664960823890276,15.73055801285144,101544.75,-29.0,1043.0,-38.0,89.6875,-0.4375,-94.125,-7.0,978.0,-68.0,9615,9475.015803257724,570.6026248479419,
336,21.361136198043823,0.06500673294067383,15.383021954243045,15.729500382604634,101544.75,-17.0,985.0,-76.0,90.125,-0.1875,-93.3125,-3.0,978.0,-57.0,9647,9509.41264260618,566.4550958485341,
337,21.424142360687256,0.06300616264343262,15.871463330646657,15.729917880791636,101544.75,-4.0,939.0,-137.0,90.5625,-0.125,-93.5,-3.0,978.0,-60.0,9760,9559.530114084944,589.3533473436753,
338,21.490148782730103,0.06600642204284668,15.150040996781662,15.728136804321398,101544.75,48.0,913.0,-146.0,91.25,-0.375,-93.25,-8.0,979.0,-53.0,9751,9597.824091267956,588.4335450345524,
339,21.554155349731445,0.06400656700134277,15.623396892681672,15.727825771851634,101544.75,77.0,1238.0,-135.0,92.5,-1.25,-91.5,-21.0,980.0,-26.0,9835,9645.259273014366,603.7000576411629,
340,21.617161750793457,0.06300640106201172,15.871403272435558,15.728244249618955,101544.75,-5.0,956.0,-170.0,93.125,-1.125,-91.375,-20.0,980.0,-23.0,9798,9675.807418411494,591.8142453593279,
341,21.684168100357056,0.06700634956359863,14.923958796633991,15.725758923367922,101546.25,-84.0,891.0,-172.0,94.625,-1.4375,-91.875,-25.0,979.0,-32.0,9873,9715.245934729195,591.49070007597,
342,21.746174335479736,0.062006235122680664,16.127410380931508,15.72690417744024,101546.25,-70.0,991.0,-112.0,95.125,-1.6875,-92.375,-29.0,979.0,-40.0,9854,9742.996747783356,577.0965051212696,
343,21.812180995941162,0.06600666046142578,15.149986274254836,15.72515834449686,101546.25,32.0,1060.0,-59.0,94.125,-1.4375,-93.3125,-25.0,978.0,-54.0,9873,9768.997398226686,558.7778043429566,
344,21.877187490463257,0.06500649452209473,15.38307837319416,15.72414187838163,101546.25,34.0,952.0,-60.0,93.625,-1.3125,-94.0625,-22.0,977.0,-70.0,,9768.997398226686,558.7778043429566,
345,21.923192262649536,0.0460047721862793,21.736875382207526,15.736759312546615,101546.25,89.0,960.0,-73.0,92.8125,-0.8125,-95.25,-14.0,976.0,-90.0,9943,9803.79791858135,578.5454813271909,
346,21.990198850631714,0.06700658798217773,14.923905695153106,15.734282456934691,101546.25,-50.0,923.0,-55.0,93.5625,-1.0,-96.0,-17.0,975.0,-102.0,9999,9842.838334865079,578.9544822862616,
347,22.05620551109314,0.06600666046142578,15.149986274254836,15.732533858803446,101544.0,-36.0,929.0,-20.0,93.9375,-1.125,-96.0625,-20.0,974.0,-103.0,9990,9872.270667892062,565.6489781954452,
348,22.12521243095398,0.06900691986083984,14.491300322005555,15.728662542156446,101544.0,18.0,1004.0,-35.0,93.125,-0.9375,-95.6875,-16.0,975.0,-97.0,10145,9926.81653431365,588.1281335398231,
349,22.189218759536743,0.06400632858276367,15.623455088615893,15.728359064016288,101544.0,-13.0,995.0,-122.0,92.5625,-0.625,-95.5625,-10.0,975.0,-95.0,10182,9977.85322745092,609.0522684960018,
350,22.24922466278076,0.060005903244018555,16.665027037980316,15.730885246778579,101544.0,-131.0,970.0,-146.0,93.0,-0.875,-95.375,-16.0,976.0,-92.0,10243,10030.882581960735,636.5206043176738,
351,22.322232007980347,0.07300734519958496,13.69725193083291,15.724234022588563,101544.0,-71.0,981.0,-124.0,93.0625,-1.375,-94.9375,-24.0,976.0,-84.0,10276,10079.90606556859,640.0172444362903,
352,22.38723874092102,0.06500673294067383,15.383021954243045,15.723243231269466,101544.0,0.0,1133.0,-172.0,92.25,-1.4375,-93.8125,-24.0,978.0,-66.0,10323,10128.524852454872,650.8059065986948,
353,22.452244997024536,0.06500625610351562,15.383134792559122,15.722258511199259,101544.75,-132.0,947.0,-187.0,92.875,-1.9375,-93.875,-33.0,977.0,-66.0,10281,10159.019881963897,632.6362308828664,
354,22.518251657485962,0.06600666046142578,15.149986274254836,15.720581037307856,101544.75,-160.0,857.0,-168.0,93.0,-2.5625,-94.1875,-44.0,977.0,-71.0,10351,10197.415905571119,627.542530858117,
355,22.583258152008057,0.06500649452209473,15.38307837319416,15.719609527132565,101544.75,22.0,879.0,-144.0,91.25,-2.375,-94.5,-41.0,976.0,-77.0,10346,10227.132724456897,610.5018931644987,
356,22.649264812469482,0.06600666046142578,15.149986274254836,15.717949476400015,101544.75,2.0,937.0,-128.0,90.875,-2.625,-94.875,-45.0,976.0,-83.0,10389,10259.506179565517,598.4974439026286,
357,22.71627163887024,0.06700682640075684,14.923852594050105,15.715607106455384,101544.75,-97.0,952.0,-91.0,91.25,-2.75,-94.9375,-47.0,975.0,-84.0,10449,10297.404943652415,595.2072563853205,
358,22.78427815437317,0.06800651550292969,14.704473425886972,15.712589074553858,101543.75,-60.0,928.0,-79.0,91.0625,-2.6875,-95.1875,-46.0,975.0,-89.0,10478,10333.523954921933,588.7976348849833,
359,22.850284814834595,0.06600666046142578,15.149986274254836,15.710963907414152,101543.75,-2.0,926.0,-75.0,90.625,-2.4375,-95.4375,-41.0,975.0,-94.0,10548,10376.419163937548,594.9040541782701,
360,22.91629147529602,0.06600666046142578,15.149986274254836,15.709348102335118,101543.75,-21.0,899.0,-38.0,90.9375,-2.375,-95.5,-41.0,975.0,-94.0,10567,10414.535331150038,593.159589770087,
361,22.983298301696777,0.06700682640075684,14.923852594050105,15.707058023667065,101543.75,19.0,1007.0,-55.0,91.25,-2.125,-94.75,-37.0,976.0,-81.0,10562,10444.02826492003,577.8584504080231,
362,23.048304557800293,0.06500625610351562,15.383134792559122,15.706144419090794,101543.75,-3.0,984.0,-113.0,92.0,-2.0,-93.8125,-35.0,977.0,-66.0,10618,10478.822611936026,573.5972183838342,
363,23.110310792922974,0.062006235122680664,16.127410380931508,15.707274698839655,101543.75,-17.0,907.0,-111.0,92.75,-1.9375,-93.5625,-33.0,978.0,-61.0,10703,10523.658089548822,588.545511254114,
364,23.175317525863647,0.06500673294067383,15.383021954243045,15.706365170348846,101542.5,4.0,1048.0,-95.0,93.375,-1.625,-92.875,-28.0,978.0,-50.0,10689,10556.72647163906,580.560124897245,
365,23.23732352256775,0.06200599670410156,16.127472392260604,15.707488844208642,101542.5,-54.0,1049.0,-130.0,94.5,-1.8125,-92.375,-31.0,979.0,-40.0,10707,10586.781177311248,570.9747560060936,
366,23.303330183029175,0.06600666046142578,15.149986274254836,15.705909718712316,101542.5,-84.0,1094.0,-101.0,96.5,-2.4375,-91.5625,-42.0,979.0,-27.0,10758,10621.024941848998,565.7565366780576,
367,23.36833667755127,0.06500649452209473,15.38307837319416,15.70501166018194,101542.5,-12.0,943.0,-144.0,98.0625,-2.6875,-91.6875,-46.0,979.0,-29.0,10796,10656.0199534792,563.0139836680737,
368,23.43634343147278,0.06800675392150879,14.704421874835665,15.702108184069834,101542.5,-18.0,877.0,-150.0,99.4375,-3.0625,-92.3125,-53.0,978.0,-40.0,10918,10708.41596278336,583.7578878378855,
369,23.497349500656128,0.06100606918334961,16.391811722774136,15.70389885845194,101542.5,-65.0,994.0,-86.0,100.75,-3.5625,-93.0625,-61.0,977.0,-52.0,10918,10750.332770226689,594.0913406171799,
370,23.563356161117554,0.06600666046142578,15.149986274254836,15.70234721531501,101537.75,46.0,1013.0,-66.0,100.875,-3.6875,-93.9375,-63.0,976.0,-67.0,11049,10810.066216181353,625.1782951881717,
371,23.627362489700317,0.06400632858276367,15.623455088615893,15.70213349719957,101537.75,-16.0,880.0,-75.0,100.625,-3.5625,-94.875,-61.0,975.0,-83.0,11012,10850.452972945082,625.7585337166532,
372,23.69236922264099,0.06500673294067383,15.383021954243045,15.701257924197296,101537.75,-106.0,934.0,-61.0,100.4375,-3.5625,-95.625,-60.0,974.0,-94.0,10984,10877.162378356068,604.269817327185,
373,23.757375478744507,0.06500625610351562,15.383134792559122,15.700387457937829,101537.75,-196.0,1027.0,0.0,100.5625,-3.75,-95.8125,-64.0,973.0,-100.0,11059,10913.529902684855,599.7874884766071,
374,23.8223819732666,0.06500649452209473,15.38307837319416,15.699521585192512,101537.75,-67.0,925.0,-84.0,99.75,-3.5,-95.8125,-58.0,973.0,-100.0,11101,10951.023922147886,597.4860836215335,
375,23.887388706207275,0.06500673294067383,15.383021954243045,15.698660268485273,101537.75,-145.0,852.0,-99.0,99.0,-3.25,-96.0625,-56.0,973.0,-104.0,11054,10971.61913771831,569.4191405865995,
376,23.948394775390625,0.06100606918334961,16.391811722774136,15.700426000425619,101541.25,-87.0,1004.0,-109.0,98.0,-3.1875,-95.375,-54.0,974.0,-92.0,11106,10998.495310174649,556.5321424012516,
377,24.01440119743347,0.06600642204284668,15.150040996781662,15.698913202145206,101541.25,4.0,1177.0,-154.0,97.0625,-2.8125,-94.1875,-48.0,976.0,-72.0,11063,11011.39624813972,520.4239020679022,
378,24.079407930374146,0.06500673294067383,15.383021954243045,15.698060396376475,101541.25,-164.0,904.0,-203.0,97.4375,-3.0,-94.1875,-52.0,976.0,-72.0,11063,11021.716998511776,484.25794481687325,
379,24.14341425895691,0.06400632858276367,15.623455088615893,15.6978626111009,101541.25,-105.0,913.0,-201.0,97.5,-3.1875,-94.75,-54.0,975.0,-81.0,11232,11063.773598809421,501.5390909281982,
380,24.203420162200928,0.060005903244018555,16.665027037980316,15.700260436475638,101541.25,9.0,922.0,-185.0,97.0,-3.3125,-95.0625,-56.0,975.0,-86.0,11265,11104.018879047537,518.454050167308,
381,24.26742649078369,0.06400632858276367,15.623455088615893,15.70005785923351,101541.25,-44.0,928.0,-133.0,97.375,-3.5,-95.125,-60.0,974.0,-88.0,11335,11150.21510323803,538.7831085409571,
382,24.32843255996704,0.06100606918334961,16.391811722774136,15.701792503829006,101542.75,-80.0,1020.0,-77.0,98.4375,-3.75,-95.125,-64.0,974.0,-87.0,11260,11172.172082590425,520.8962648413914,
383,24.38943862915039,0.06100606918334961,16.391811722774136,15.70351847058244,101542.75,-73.0,914.0,-66.0,99.5625,-4.0,-95.25,-68.0,974.0,-90.0,11331,11203.937666072341,520.8761847272156,
384,24.45844578742981,0.06900715827941895,14.491250254805019,15.700098172114977,101542.75,-119.0,895.0,-32.0,101.0,-4.25,-95.8125,-73.0,972.0,-99.0,11387,11240.550132857872,521.8446081179808,
385,24.525452375411987,0.06700658798217773,14.923905695153106,15.697977517673928,101542.75,-69.0,882.0,-39.0,101.625,-4.125,-96.0,-71.0,972.0,-102.0,11457,11283.840106286298,534.2656954053334,
386,24.586458683013916,0.06100630760192871,16.391747661980858,15.69969896749207,101542.75,-60.0,1106.0,-67.0,101.5625,-3.8125,-95.25,-65.0,974.0,-90.0,11439,11314.872085029037,531.7059623650945,
387,24.652465105056763,0.06600642204284668,15.150040996781662,15.698227270611481,101542.75,-58.0,948.0,-136.0,102.0625,-3.5,-94.25,-60.0,976.0,-73.0,11518,11355.49766802323,540.0832909166029,
388,24.722472190856934,0.0700070858001709,14.284268350412592,15.694223336754053,101541.0,-90.0,963.0,-140.0,103.0,-3.5,-94.25,-60.0,976.0,-73.0,11570,11398.398134418585,547.355139259853,
389,24.785478353500366,0.06300616264343262,15.871463330646657,15.69467389137813,101541.0,-61.0,1010.0,-168.0,103.75,-3.5625,-94.0,-61.0,976.0,-68.0,11570,11432.718507534868,547.0910796747874,
390,24.8484845161438,0.06300616264343262,15.871463330646657,15.695122161137075,101541.0,-56.0,1222.0,-180.0,104.375,-3.8125,-93.125,-65.0,976.0,-54.0,11612,11468.574806027895,549.2911643777882,
391,24.908490657806396,0.060006141662597656,16.664960823890276,15.697458564293193,101541.0,-42.0,923.0,-198.0,104.5,-3.5625,-93.25,-61.0,977.0,-55.0,11664,11507.659844822316,559.4971119709352,
392,24.97249722480774,0.06400656700134277,15.623396892681672,15.697268738129491,101541.0,-106.0,820.0,-182.0,105.625,-3.625,-94.125,-62.0,976.0,-70.0,11757,11557.527875857853,581.4582048863188,
393,25.03350329399109,0.06100606918334961,16.391811722774136,15.69896132333718,101541.0,-50.0,965.0,-139.0,106.5,-3.9375,-94.75,-68.0,975.0,-80.0,11767,11599.422300686283,591.9849367998402,
394,25.097509622573853,0.06400632858276367,15.623455088615893,15.698768759336119,101543.0,-2.0,1088.0,-108.0,106.5,-4.0,-95.25,-68.0,974.0,-90.0,11720,11623.537840549026,570.4632485181859,
395,25.162516117095947,0.06500649452209473,15.38307837319416,15.69795318408673,101543.0,-6.0,902.0,-131.0,105.75,-3.75,-96.3125,-65.0,972.0,-104.0,11767,11652.230272439221,557.5547165148074,
396,25.227522611618042,0.06500649452209473,15.38307837319416,15.697141811999801,101543.0,-26.0,885.0,-120.0,105.1875,-3.375,-97.125,-58.0,971.0,-121.0,11767,11675.184217951377,537.1094791420787,
397,25.289528846740723,0.062006235122680664,16.127410380931508,15.698196767756896,101543.0,-30.0,964.0,-97.0,105.3125,-3.375,-97.5,-57.0,970.0,-128.0,11851,11710.347374361103,540.1075965987243,
398,25.353535175323486,0.06400632858276367,15.623455088615893,15.698008078469945,101543.0,-103.0,953.0,-28.0,106.0,-3.625,-97.6875,-62.0,969.0,-131.0,11833,11734.877899488883,524.4219927022561,
399,25.41654133796692,0.06300616264343262,15.871463330646657,15.698438064190059,101543.0,-68.0,995.0,-47.0,105.875,-3.75,-97.625,-64.0,969.0,-130.0,11870,11761.902319591107,514.8715027004732,
400,25.48054790496826,0.06400656700134277,15.623396892681672,15.698249562443944,101539.5,-84.0,879.0,-140.0,105.0625,-3.1875,-97.875,-55.0,969.0,-134.0,11889,11787.321855672886,503.0983025337741,
401,25.543554306030273,0.06300640106201172,15.871403272435558,15.698676667926854,101539.5,-136.0,885.0,-189.0,104.9375,-3.1875,-97.6875,-55.0,970.0,-131.0,11903,11810.45748453831,489.5079618488515,
402,25.603560209274292,0.060005903244018555,16.665027037980316,15.700941459476596,101539.5,-85.0,1225.0,-136.0,104.25,-3.375,-96.1875,-58.0,973.0,-105.0,11997,11847.765987630648,502.73188694200417,
403,25.66956663131714,0.06600642204284668,15.150040996781662,15.699524880499377,101539.5,-56.0,976.0,-191.0,103.8125,-3.125,-95.5625,-53.0,974.0,-95.0,12072,11892.612790104518,520.4017878531744,
404,25.73357319831848,0.06400656700134277,15.623396892681672,15.699335528981212,101539.5,-189.0,904.0,-196.0,104.6875,-3.625,-95.6875,-63.0,973.0,-97.0,12090,11932.090232083616,530.0387835025821,
405,25.798579692840576,0.06500649452209473,15.38307837319416,15.698538633597433,101539.5,-106.0,998.0,-199.0,104.625,-4.0625,-95.75,-70.0,973.0,-98.0,12100,11965.672185666894,528.6942875419771,
406,25.860585927963257,0.062006235122680664,16.127410380931508,15.699566944497919,101539.0,-20.0,913.0,-156.0,104.0,-4.0,-96.0,-69.0,972.0,-102.0,12184,12009.337748533515,546.2461039742159,
407,25.926592588424683,0.06600666046142578,15.149986274254836,15.69816776392403,101539.0,-73.0,921.0,-106.0,104.1875,-4.125,-96.0625,-71.0,972.0,-103.0,12184,12044.270198826813,544.5441078237493,
408,25.991599082946777,0.06500649452209473,15.38307837319416,15.697379707110477,101539.0,-65.0,926.0,-71.0,104.4375,-4.1875,-96.0,-72.0,972.0,-102.0,12241,12083.616159061452,550.6158960371781,
409,26.05460524559021,0.06300616264343262,15.871463330646657,15.697800682250751,101539.0,-77.0,918.0,-49.0,104.5625,-4.0625,-95.9375,-70.0,972.0,-101.0,12212,12109.292927249162,536.3070949075357,
410,26.117611408233643,0.06300616264343262,15.871463330646657,15.698219626268981,101539.0,-29.0,921.0,-53.0,104.5,-3.8125,-95.6875,-65.0,973.0,-97.0,12231,12133.63434179933,521.3097722616887,
411,26.181617975234985,0.06400656700134277,15.623396892681672,15.698036706087535,101539.0,-95.0,991.0,-32.0,104.5,-3.5,-95.0625,-60.0,974.0,-86.0,12320,12170.907473439465,527.41208794022,
412,26.240623950958252,0.0590059757232666,16.947436047662723,15.7008461677587,101538.25,-30.0,977.0,-114.0,104.1875,-3.125,-94.125,-54.0,976.0,-73.0,12325,12201.725978751572,526.9003439323466,
413,26.303630352020264,0.06300640106201172,15.871403272435558,15.701254711720024,101538.25,-82.0,985.0,-137.0,104.3125,-3.0,-93.6875,-51.0,977.0,-63.0,12395,12240.380783001257,535.5609082054929,
414,26.366636514663696,0.06300616264343262,15.871463330646657,15.701661445128035,101538.25,-48.0,1012.0,-126.0,104.375,-3.125,-93.4375,-53.0,977.0,-58.0,12428,12277.904626401007,541.5606478393483,
415,26.43064284324646,0.06400632858276367,15.623455088615893,15.70147205504086,101538.25,-34.0,1185.0,-113.0,104.125,-3.1875,-92.5625,-55.0,978.0,-44.0,12554,12333.123701120807,573.6758564473857,
416,26.503650188446045,0.07300734519958496,13.69725193083291,15.69595120076518,101538.25,-12.0,942.0,-176.0,104.0625,-2.875,-92.125,-49.0,978.0,-36.0,12596,12385.698960896647,588.3219286505139,
417,26.566656589508057,0.06300640106201172,15.871403272435558,15.696367308962973,101538.25,-100.0,822.0,-182.0,104.875,-2.875,-92.375,-50.0,978.0,-41.0,12559,12420.359168717318,584.5003493682913,
418,26.62966275215149,0.06300616264343262,15.871463330646657,15.696781588652621,101539.25,-62.0,999.0,-127.0,105.5625,-3.0625,-92.375,-52.0,978.0,-41.0,12545,12445.287334973855,565.6149620955516,
419,26.689668893814087,0.060006141662597656,16.664960823890276,15.698958337288042,101539.25,-10.0,1055.0,-89.0,105.3125,-3.125,-92.875,-53.0,977.0,-49.0,12667,12489.629867979083,582.9501234224163,
420,26.750674962997437,0.06100606918334961,16.391811722774136,15.700538419346808,101539.25,27.0,913.0,-91.0,104.6875,-2.875,-93.875,-49.0,977.0,-66.0,12747,12541.103894383266,609.0303660232217,
421,26.816681385040283,0.06600642204284668,15.150040996781662,15.699183428224469,101539.25,-26.0,918.0,-71.0,104.6875,-2.5625,-95.0,-44.0,976.0,-83.0,12634,12559.683115506614,576.2749255915982,
422,26.87668752670288,0.060006141662597656,16.664960823890276,15.701339667722408,101539.25,-26.0,969.0,-60.0,104.875,-2.375,-95.625,-40.0,974.0,-98.0,12798,12607.346492405291,598.0782639075162,
423,26.940694093704224,0.06400656700134277,15.623396892681672,15.701154488772097,101539.25,-60.0,972.0,-32.0,104.5,-2.25,-96.3125,-38.0,973.0,-108.0,12681,12622.077193924235,561.2847971505729,
424,27.004700422286987,0.06400632858276367,15.623455088615893,15.700970326264855,101539.25,-12.0,999.0,-90.0,103.625,-1.875,-96.6875,-32.0,973.0,-114.0,12700,12637.661755139388,529.504786657589,
425,27.069706678390503,0.06500625610351562,15.383134792559122,15.70020706353917,101539.25,-75.0,1001.0,-156.0,103.375,-1.5625,-96.75,-27.0,973.0,-115.0,12681,12646.329404111511,489.8878692391056,
426,27.13571333885193,0.06600666046142578,15.149986274254836,15.698868670980124,101539.25,-102.0,903.0,-150.0,103.6875,-2.0,-96.5625,-34.0,973.0,-112.0,12657,12648.463523289209,444.13226994016895,
427,27.201719999313354,0.06600666046142578,15.149986274254836,15.697536773806165,101539.25,20.0,1186.0,-180.0,103.625,-1.75,-95.4375,-30.0,975.0,-93.0,12737,12666.170818631368,426.5455710849411,
428,27.264726161956787,0.06300616264343262,15.871463330646657,15.697938701368658,101539.25,-189.0,945.0,-202.0,104.6875,-2.3125,-95.4375,-39.0,975.0,-93.0,12807,12694.336654905095,428.5943177359928,
429,27.327732801437378,0.06300663948059082,15.871343214678982,15.698338501664344,101539.0,-144.0,824.0,-194.0,105.3125,-2.75,-95.8125,-47.0,974.0,-99.0,12831,12721.669323924078,429.11550305974276,
430,27.39073896408081,0.06300616264343262,15.871463330646657,15.698736735941512,101539.0,39.0,797.0,-201.0,104.1875,-2.625,-96.1875,-45.0,973.0,-105.0,12798,12736.935459139264,410.43354328062077,
431,27.454745292663574,0.06400632858276367,15.623455088615893,15.698561228873295,101539.0,1.0,910.0,-169.0,104.0625,-2.8125,-96.0,-48.0,973.0,-103.0,12817,12752.948367311412,394.40788411912706,
432,27.51975154876709,0.06500625610351562,15.383134792559122,15.697816138872591,101539.0,-57.0,1042.0,-113.0,103.9375,-2.6875,-95.6875,-46.0,974.0,-97.0,12864,12775.158693849131,389.1335403988629,
433,27.579757690429688,0.060006141662597656,16.664960823890276,15.699920385821706,101539.0,-86.0,933.0,-58.0,104.625,-2.75,-95.875,-47.0,974.0,-100.0,12887,12797.526955079305,387.4968060689169,
434,27.64376425743103,0.06400656700134277,15.623396892681672,15.699743202785227,101539.0,-31.0,880.0,-16.0,104.6875,-2.5625,-96.25,-44.0,973.0,-106.0,12929,12823.821564063444,389.82823669173274,
435,27.706770420074463,0.06300616264343262,15.871463330646657,15.700133700347417,101539.5,-13.0,870.0,-28.0,104.375,-2.375,-96.125,-41.0,974.0,-105.0,12990,12857.057251250757,403.59531206878694,
436,27.769776821136475,0.06300640106201172,15.871403272435558,15.700522291131497,101539.5,-17.0,1119.0,-70.0,104.0625,-2.125,-94.9375,-37.0,976.0,-85.0,13080,12901.645801000606,434.0040663031997,
437,27.831782817840576,0.06200599670410156,16.127472392260604,15.701473486631143,101539.5,39.0,1026.0,-164.0,103.75,-1.9375,-94.125,-33.0,977.0,-71.0,13098,12940.916640800486,453.93759814222426,
438,27.892788887023926,0.06100606918334961,16.391811722774136,15.702983368714452,101539.5,19.0,959.0,-212.0,103.8125,-1.6875,-93.875,-28.0,977.0,-66.0,13155,12983.73331264039,478.7281206675535,
439,27.95879578590393,0.06600689888000488,15.149931552123329,15.701677688898602,101539.5,-55.0,966.0,-203.0,104.4375,-1.75,-93.625,-30.0,978.0,-62.0,13192,13025.386650112312,493.9598297625094,
440,28.017801761627197,0.0590059757232666,16.947436047662723,15.704301277576246,101539.5,50.0,1192.0,-169.0,104.625,-1.75,-92.4375,-30.0,979.0,-42.0,13197,13059.70932008985,502.7319722291955,
441,28.0798077583313,0.06200599670410156,16.127472392260604,15.705235726521488,101539.5,-12.0,874.0,-182.0,105.125,-1.625,-92.6875,-27.0,979.0,-45.0,13248,13097.367456071881,513.1918298456948,
442,28.14281415939331,0.06300640106201172,15.871403272435558,15.705607744009933,101539.5,-82.0,897.0,-158.0,106.25,-1.8125,-93.125,-31.0,978.0,-53.0,13248,13127.493964857505,509.68764387384726,
443,28.207820415496826,0.06500625610351562,15.383134792559122,15.704864589843476,101539.5,-34.0,1024.0,-95.0,107.125,-2.25,-93.75,-39.0,977.0,-63.0,13356,13173.195171886005,529.0216622766691,
444,28.269826889038086,0.062006473541259766,16.127348370079286,15.705791257326926,101539.5,37.0,977.0,-80.0,106.8125,-2.5,-94.4375,-43.0,976.0,-76.0,13469,13232.356137508807,571.530446299922,
445,28.331833124160767,0.062006235122680664,16.127410380931508,15.706714000814644,101539.5,48.0,959.0,-119.0,105.9375,-2.25,-95.25,-39.0,975.0,-90.0,13591,13304.084910007046,630.0573366898884,
446,28.391839027404785,0.060005903244018555,16.665027037980316,15.70873938702968,101539.5,-21.0,926.0,-123.0,105.5625,-2.0625,-96.125,-35.0,974.0,-104.0,13572,13357.667928005638,656.3478473932109,
447,28.45584535598755,0.06400632858276367,15.623455088615893,15.70854755527213,101539.5,-129.0,917.0,-65.0,105.75,-2.1875,-96.8125,-38.0,972.0,-116.0,13638,13413.734342404512,678.3081733879438,
448,28.51785159111023,0.062006235122680664,16.127410380931508,15.709458286810548,101537.5,-6.0,988.0,-73.0,105.125,-2.1875,-96.75,-37.0,973.0,-115.0,13778,13486.587473923611,727.9705910035987,
449,28.57885766029358,0.06100606918334961,16.391811722774136,15.71091487760283,101537.5,-63.0,955.0,-124.0,104.5,-1.9375,-96.5625,-34.0,973.0,-112.0,13788,13546.86997913889,753.9874794698381,
450,28.64086389541626,0.062006235122680664,16.127410380931508,15.711816572405096,101537.5,-125.0,902.0,-122.0,104.6875,-2.25,-96.125,-39.0,974.0,-105.0,13811,13599.695983311114,763.7833963298804,
451,28.707870721817017,0.06700682640075684,14.923852594050105,15.709977391574888,101537.5,-58.0,1237.0,-132.0,104.5625,-2.625,-94.5625,-44.0,976.0,-82.0,13891,13657.956786648892,774.3526207992868,
452,28.769876718521118,0.06200599670410156,16.127472392260604,15.71087719361053,101537.5,-127.0,1000.0,-195.0,104.8125,-2.75,-93.9375,-47.0,977.0,-67.0,13943,13714.965429319114,788.8578897977835,
453,28.836883544921875,0.06700682640075684,14.923852594050105,15.709048423846498,101536.25,-155.0,902.0,-181.0,105.8125,-3.375,-93.625,-57.0,976.0,-62.0,13910,13753.972343455293,768.1854444897145,
454,28.90088987350464,0.06400632858276367,15.623455088615893,15.708858861685497,101536.25,-112.0,848.0,-154.0,106.125,-3.9375,-93.75,-67.0,976.0,-64.0,13928,13788.777874764235,745.7451655648109,
455,28.96289610862732,0.062006235122680664,16.127410380931508,15.709754932431185,101536.25,-39.0,875.0,-137.0,105.75,-4.0,-93.8125,-69.0,975.0,-66.0,13985,13828.02229981139,734.4617437982465,
456,29.025902271270752,0.06300616264343262,15.871463330646657,15.710105950826533,101536.25,-49.0,1013.0,-66.0,105.4375,-4.0,-93.8125,-68.0,976.0,-65.0,14125,13887.417839849113,755.2849829896904,
457,29.09390926361084,0.06800699234008789,14.704370324145813,15.707755044510021,101536.25,-40.0,933.0,-69.0,105.5625,-3.75,-93.75,-64.0,976.0,-64.0,14144,13938.73427187929,755.214066719279,
458,29.156915426254272,0.06300616264343262,15.871463330646657,15.708108807270985,101536.25,-141.0,898.0,-56.0,106.5,-3.6875,-93.75,-63.0,976.0,-64.0,14271,14005.187417503434,785.1635264453232,
459,29.221921920776367,0.06500649452209473,15.38307837319416,15.707385751162985,101538.25,-74.0,932.0,3.0,106.4375,-3.3125,-93.75,-57.0,976.0,-64.0,14280,14060.149934002748,791.1964436904834,
460,29.288928747177124,0.06700682640075684,14.923852594050105,15.70559319429991,101538.25,-32.0,1097.0,22.0,106.0,-2.8125,-93.1875,-48.0,977.0,-55.0,14182,14084.519947202198,748.4462477918,
461,29.35593557357788,0.06700682640075684,14.923852594050105,15.703808820691373,101538.25,-4.0,932.0,-84.0,105.9375,-2.4375,-92.75,-42.0,978.0,-47.0,14327,14133.015957761758,745.9763543116572,
462,29.420941829681396,0.06500625610351562,15.383134792559122,15.703100283958621,101538.25,-53.0,958.0,-107.0,106.1875,-2.3125,-92.625,-39.0,978.0,-45.0,14365,14179.412766209407,742.7515547099648,
463,29.487948417663574,0.06700658798217773,14.923905695153106,15.701329690425611,101538.25,-9.0,936.0,-149.0,105.8125,-1.875,-92.125,-32.0,979.0,-37.0,14421,14227.730212967526,740.5849011238438,
464,29.555955410003662,0.06800699234008789,14.704370324145813,15.699035729460878,101538.25,21.0,1239.0,-153.0,105.25,-1.6875,-90.9375,-29.0,980.0,-16.0,14327,14247.58417037402,695.7204052219505,
465,29.626962423324585,0.07100701332092285,14.083115923780744,15.695162850509334,101537.0,13.0,955.0,-188.0,104.6875,-1.125,-90.9375,-20.0,980.0,-16.0,14402,14278.467336299216,669.6414852815439,
466,29.69296908378601,0.06600666046142578,15.149986274254836,15.693950937848838,101537.0,-60.0,936.0,-141.0,105.0625,-1.0,-91.75,-18.0,980.0,-30.0,14519,14326.573869039374,675.5586678249272,
467,29.762975931167603,0.0700068473815918,14.28431699758199,15.690635273839016,101537.0,-41.0,983.0,-83.0,105.125,-1.0625,-93.0,-18.0,979.0,-51.0,14552,14371.6590952315,672.4039673260364,
468,29.832983016967773,0.0700070858001709,14.284268350412592,15.687335045704978,101537.0,50.0,961.0,-75.0,104.4375,-1.125,-94.125,-19.0,977.0,-71.0,14646,14426.527276185201,683.5387526575992,
469,29.89898991584778,0.06600689888000488,15.149931552123329,15.686148639804363,101537.0,65.0,936.0,-98.0,103.8125,-0.9375,-95.3125,-16.0,976.0,-91.0,14721,14485.421820948162,704.4097095870718,
470,29.96799659729004,0.06900668144226074,14.491350389552059,15.683397402764701,101537.0,15.0,968.0,-59.0,103.375,-0.5,-96.0,-8.0,975.0,-102.0,14684,14525.13745675853,691.5220580755524,
471,30.035003423690796,0.06700682640075684,14.923852594050105,15.6817028903179,101536.5,-45.0,954.0,-40.0,103.8125,-0.625,-96.625,-12.0,973.0,-114.0,14693,14558.709965406824,672.472969295959,
472,30.110010862350464,0.07500743865966797,13.332011036096171,15.6758495424586,101536.5,-47.0,950.0,-46.0,103.875,-1.0,-96.8125,-17.0,973.0,-116.0,14749,14596.767972325459,655.964649191469,
473,30.174017190933228,0.06400632858276367,15.623455088615893,15.675738401253657,101536.5,-37.0,1003.0,-133.0,102.875,-0.6875,-96.6875,-11.0,973.0,-114.0,14876,14652.61437786037,677.6195651458524,
474,30.23802375793457,0.06400656700134277,15.623396892681672,15.675627606966895,101536.5,-86.0,771.0,-154.0,102.6875,-0.875,-96.6875,-15.0,973.0,-114.0,14960,14714.091502288296,705.9057601070956,
475,30.304030179977417,0.06600642204284668,15.150040996781662,15.674482805717492,101536.5,25.0,1312.0,-159.0,101.9375,-1.0625,-94.375,-19.0,977.0,-75.0,14960,14763.273201830638,709.8256605321731,
476,30.374037265777588,0.0700070858001709,14.284268350412592,15.671278593455503,101538.75,-126.0,915.0,-204.0,102.9375,-1.75,-93.8125,-30.0,977.0,-65.0,14965,14803.618561464511,696.4734888493706,
477,30.442043781280518,0.06800651550292969,14.704473425886972,15.66911878279729,101538.75,-130.0,953.0,-172.0,103.5625,-2.4375,-93.4375,-42.0,977.0,-58.0,14993,14841.49484917161,682.5212265704615,
478,30.509050607681274,0.06700682640075684,14.923852594050105,15.66748195958788,101538.75,-13.0,845.0,-185.0,102.3125,-2.1875,-93.625,-37.0,977.0,-62.0,15021,14877.39587933729,667.8472721301307,
479,30.58205795288086,0.07300734519958496,13.69725193083291,15.662778506862313,101538.75,24.0,889.0,-141.0,101.9375,-2.3125,-93.625,-40.0,977.0,-62.0,15026,14907.116703469834,641.7719064906614,
480,30.65206503868103,0.0700070858001709,14.284268350412592,15.659630089988044,101538.75,-21.0,1044.0,-107.0,102.125,-2.375,-93.5625,-40.0,977.0,-61.0,15125,14950.693362775868,639.8407853757851,
481,30.726072311401367,0.07400727272033691,13.51218553585753,15.654457723238442,101535.0,-61.0,923.0,-54.0,102.75,-2.25,-93.875,-38.0,977.0,-67.0,15181,14996.754690220696,638.0956270844466,
482,30.794079303741455,0.06800699234008789,14.704370324145813,15.65235950864871,101535.0,-61.0,936.0,-33.0,103.25,-2.125,-94.1875,-36.0,977.0,-71.0,15190,15035.403752176557,631.1170763439852,
483,30.85908579826355,0.06500649452209473,15.38307837319416,15.6517922519655,101535.0,-90.0,968.0,-11.0,103.6875,-2.125,-94.125,-37.0,977.0,-71.0,15293,15086.923001741246,647.2578340877639,
484,30.925092220306396,0.06600642204284668,15.150040996781662,15.650721315624413,101535.0,-50.0,997.0,-5.0,103.625,-2.0625,-93.8125,-35.0,977.0,-65.0,15298,15129.138401392998,646.4885542209437,
485,30.988098621368408,0.06300640106201172,15.871403272435558,15.651170016141597,101535.0,15.0,876.0,-79.0,103.5,-1.875,-93.25,-32.0,978.0,-55.0,15322,15167.7107211144,643.0593829440169,
486,31.054105043411255,0.06600642204284668,15.150040996781662,15.65010485153603,101535.0,-8.0,936.0,-142.0,103.75,-1.8125,-92.75,-31.0,979.0,-47.0,15382,15210.56857689152,643.6832718553673,
487,31.125112295150757,0.07100725173950195,14.083068637392303,15.64652989463668,101536.5,-4.0,945.0,-138.0,104.0625,-1.5625,-92.0,-26.0,979.0,-34.0,15415,15251.454861513215,636.895379935361,
488,31.19611930847168,0.07100701332092285,14.083115923780744,15.64297133161296,101536.5,-52.0,1347.0,-125.0,104.8125,-1.9375,-90.125,-33.0,980.0,-2.0,15439,15288.963889210572,626.030240466843,
489,31.2651264667511,0.06900715827941895,14.491250254805019,15.64042929811997,101536.5,11.0,951.0,-158.0,104.4375,-1.625,-89.75,-27.0,980.0,3.0,15467,15324.571111368457,615.026533136994,
490,31.33513307571411,0.0700066089630127,14.28436564508274,15.63739968220426,101536.5,-88.0,834.0,-155.0,105.0625,-1.4375,-90.375,-25.0,980.0,-7.0,15556,15370.856889094768,619.6401771442594,
491,31.402139902114868,0.06700682640075684,14.923852594050105,15.635877094061739,101536.5,-52.0,1007.0,-135.0,105.8125,-1.625,-90.875,-27.0,980.0,-15.0,15617,15420.085511275814,631.1442295136455,
492,31.466146230697632,0.06400632858276367,15.623455088615893,15.635851826049686,101536.5,-10.0,1066.0,-103.0,106.25,-2.0625,-91.5,-35.0,979.0,-25.0,15636,15463.268409020653,635.4964129135587,
493,31.528152465820312,0.062006235122680664,16.127410380931508,15.636818571416818,101531.25,6.0,992.0,-103.0,106.0,-2.125,-92.25,-36.0,979.0,-42.0,15650,15500.614727216524,632.1767115983681,
494,31.59415912628174,0.06600666046142578,15.149986274254836,15.6358014791748,101531.25,25.0,961.0,-68.0,105.3125,-1.9375,-93.875,-33.0,977.0,-66.0,15683,15537.09178177322,624.221728024452,
495,31.658165454864502,0.06400632858276367,15.623455088615893,15.635776517300997,101531.25,-11.0,936.0,-64.0,105.0,-1.6875,-95.0,-29.0,976.0,-86.0,15673,15564.273425418578,604.266674094807,
496,31.724172353744507,0.06600689888000488,15.149931552123329,15.63476564397922,101531.25,-87.0,928.0,-10.0,105.125,-1.8125,-96.0,-32.0,974.0,-102.0,15673,15586.018740334863,576.7840099414343,
497,31.789178609848022,0.06500625610351562,15.383134792559122,15.634251079580695,101531.25,-36.0,974.0,-40.0,104.5,-1.9375,-96.375,-33.0,973.0,-109.0,15626,15594.014992267892,531.4063510793959,
498,31.85618543624878,0.06700682640075684,14.923852594050105,15.63275681567736,101531.25,-2.0,949.0,-139.0,103.125,-1.375,-96.4375,-24.0,974.0,-110.0,15800,15635.211993814315,539.7475138110235,
499,31.923192024230957,0.06700658798217773,14.923905695153106,15.631268941440423,101536.75,-93.0,881.0,-168.0,103.25,-1.4375,-96.5625,-24.0,973.0,-112.0,15814,15670.969595051454,539.1370693047166,
500,31.989198684692383,0.06600666046142578,15.149986274254836,15.630275860559841,101536.75,-134.0,1078.0,-121.0,103.8125,-2.1875,-96.1875,-37.0,974.0,-105.0,15908,15718.375676041165,557.0435100052784,
501,32.05720543861389,0.06800675392150879,14.704421874835665,15.628311736634725,101536.75,-13.0,1199.0,-176.0,103.125,-2.5625,-94.75,-44.0,976.0,-81.0,15945,15763.700540832933,567.9867523365549,
502,32.12421226501465,0.06700682640075684,14.923852594050105,15.626842328728806,101536.75,-133.0,901.0,-221.0,103.3125,-2.625,-94.625,-45.0,976.0,-79.0,15908,15792.560432666347,554.2581542631091,
503,32.190218687057495,0.06600642204284668,15.150040996781662,15.625864641989457,101536.75,-127.0,860.0,-187.0,103.8125,-2.9375,-94.6875,-51.0,976.0,-80.0,15908,15815.648346133079,533.8106223919119,
504,32.25422525405884,0.06400656700134277,15.623396892681672,15.625859744889615,101533.75,-27.0,876.0,-176.0,103.5,-2.875,-94.875,-50.0,975.0,-84.0,15898,15832.118676906464,506.1618116153554,
505,32.3182315826416,0.06400632858276367,15.623455088615893,15.625854982462586,101533.75,-21.0,963.0,-123.0,104.0,-3.25,-94.8125,-56.0,975.0,-82.0,15931,15851.894941525174,486.44298866291876,
506,32.38723850250244,0.06900691986083984,14.491300322005555,15.623437606787725,101533.75,-107.0,1004.0,-59.0,104.8125,-3.375,-94.8125,-58.0,975.0,-83.0,15927,15866.91595322014,459.56608895783734,
507,32.45424509048462,0.06700658798217773,14.923905695153106,15.621993319716724,101533.75,-95.0,912.0,-68.0,105.1875,-3.375,-95.25,-57.0,974.0,-89.0,16034,15900.332762576112,463.4804112081985,
508,32.52225208282471,0.06800699234008789,14.704370324145813,15.620074486424615,101533.75,-52.0,892.0,-44.0,105.0,-3.0,-95.6875,-52.0,974.0,-97.0,16110,15942.26621006089,478.79286416580874,
509,32.589258670806885,0.06700658798217773,14.923905695153106,15.618643097762664,101533.75,-50.0,923.0,-65.0,104.8125,-2.5625,-95.5625,-44.0,974.0,-95.0,16180,15989.812968048713,501.8719109812806,
510,32.666266441345215,0.07700777053833008,12.985702520789859,15.61243617833535,101534.0,-65.0,1074.0,-61.0,105.125,-2.25,-94.75,-40.0,976.0,-81.0,16241,16040.050374438972,516.9215213631455,
511,32.73227286338806,0.06600642204284668,15.150040996781662,15.611503733111286,101534.0,-8.0,868.0,-124.0,105.25,-1.875,-93.8125,-32.0,977.0,-65.0,16278,16087.640299551178,537.3283008752006,
512,32.798279762268066,0.06600689888000488,15.149931552123329,15.610574814018666,101534.0,-79.0,896.0,-154.0,105.875,-1.75,-93.4375,-30.0,978.0,-59.0,16339,16137.912239640944,559.7571159229203,
513,32.866286277770996,0.06800651550292969,14.704473425886972,15.60869992016609,101534.0,-16.0,963.0,-125.0,106.125,-1.625,-92.8125,-28.0,979.0,-48.0,16367,16183.729791712756,571.153702018544,
514,32.93129301071167,0.06500673294067383,15.383021954243045,15.608254429390596,101534.0,-29.0,1275.0,-84.0,106.25,-1.875,-91.1875,-33.0,979.0,-20.0,16424,16231.783833370206,587.9599695973551,
515,32.99829959869385,0.06700658798217773,14.923905695153106,15.60686478585657,101537.5,-30.0,997.0,-158.0,105.5625,-1.3125,-90.75,-23.0,980.0,-13.0,16443,16274.027066696166,592.2073756791177,
516,33.06330585479736,0.06500625610351562,15.383134792559122,15.606424906997928,101537.5,-17.0,809.0,-147.0,105.6875,-1.0,-91.1875,-18.0,980.0,-20.0,16410,16301.221653356934,574.8204373342577,
517,33.12831258773804,0.06500673294067383,15.383021954243045,15.605986529822832,101537.5,-63.0,917.0,-111.0,106.25,-1.0,-91.5625,-18.0,980.0,-27.0,16447,16330.377322685546,562.1886237381023,
518,33.19831967353821,0.0700070858001709,14.284268350412592,15.603199351468641,101537.5,-6.0,1058.0,-84.0,106.125,-1.1875,-92.1875,-20.0,979.0,-38.0,16508,16365.901858148438,556.7139611218611,
519,33.265326261520386,0.06700658798217773,14.923905695153106,15.601831045329396,101537.5,54.0,986.0,-108.0,104.9375,-0.75,-93.0625,-13.0,979.0,-52.0,16588,16410.32148651875,567.3339994909051,
520,33.334333181381226,0.06900691986083984,14.491300322005555,15.5995320851489,101537.5,40.0,937.0,-97.0,104.375,-0.3125,-94.125,-6.0,978.0,-70.0,16541,16436.457189215,548.4746312316163,
521,33.40033960342407,0.06600642204284668,15.150040996781662,15.59864379183106,101535.0,-21.0,945.0,-76.0,104.75,-0.3125,-95.25,-5.0,976.0,-90.0,16569,16462.965751372,533.7877484528827,
522,33.46634650230408,0.06600689888000488,15.149931552123329,15.597758780273836,101535.0,-16.0,998.0,-17.0,105.0,-0.4375,-96.0,-7.0,975.0,-101.0,16621,16494.572601097603,528.2931345997063,
523,33.53135275840759,0.06500625610351562,15.383134792559122,15.597342695005464,101535.0,25.0,960.0,-62.0,104.625,-0.3125,-96.3125,-5.0,974.0,-108.0,16696,16534.858080878083,537.4355177043386,
524,33.5973596572876,0.06600689888000488,15.149931552123329,15.596463690751342,101535.0,-53.0,881.0,-133.0,105.0625,-0.3125,-96.875,-6.0,973.0,-118.0,16672,16562.28646470247,525.2457796863869,
525,33.664366006851196,0.06700634956359863,14.923958796633991,15.595125121119308,101535.0,-105.0,922.0,-125.0,105.75,-0.875,-96.5625,-15.0,974.0,-112.0,16747,16599.229171761977,527.8543455169705,
526,33.72937273979187,0.06500673294067383,15.383021954243045,15.594716333976086,101535.0,-10.0,1065.0,-164.0,105.625,-1.125,-95.4375,-19.0,976.0,-93.0,16715,16622.383337409585,510.687014814206,
527,33.80037999153137,0.07100725173950195,14.083068637392303,15.591540690727115,101535.5,-96.0,1083.0,-168.0,106.0625,-1.5625,-94.75,-28.0,976.0,-81.0,16799,16657.70666992767,509.36440496814697,
528,33.86538624763489,0.06500625610351562,15.383134792559122,15.591140645468787,101535.5,-104.0,879.0,-215.0,105.875,-1.8125,-95.0,-32.0,976.0,-86.0,16738,16673.76533594214,483.1312268602589,
529,33.932392835617065,0.06700658798217773,14.923905695153106,15.589823050873568,101535.5,-108.0,887.0,-168.0,104.875,-2.0625,-95.625,-35.0,975.0,-96.0,16780,16695.01226875371,466.5268263333501,
530,34.001399755477905,0.06900691986083984,14.491300322005555,15.587593564132979,101535.5,13.0,882.0,-171.0,103.0,-1.875,-96.25,-32.0,974.0,-105.0,16813,16718.609815002972,454.0700566560602,
531,34.06940674781799,0.06800699234008789,14.704370324145813,15.58583053501536,101535.5,-58.0,976.0,-140.0,102.3125,-2.0,-96.5625,-35.0,973.0,-112.0,16818,16738.487852002378,437.8924527260874,
532,34.13541316986084,0.06600642204284668,15.150040996781662,15.584987864442152,101531.75,-16.0,973.0,-129.0,101.8125,-1.9375,-97.0,-34.0,972.0,-119.0,16869,16764.590281601904,433.64849530832225,
533,34.200419902801514,0.06500673294067383,15.383021954243045,15.584603976056432,101531.75,-73.0,843.0,-119.0,101.875,-1.875,-97.75,-32.0,971.0,-132.0,16888,16789.272225281522,428.25193392718495,
534,34.269426584243774,0.06900668144226074,14.491350389552059,15.582402544357711,101531.75,-8.0,1013.0,-64.0,101.875,-1.75,-97.6875,-31.0,971.0,-131.0,16926,16816.617780225217,425.0541423630495,
535,34.3354332447052,0.06600666046142578,15.149986274254836,15.581571264504179,101531.75,12.0,974.0,-82.0,101.9375,-1.5,-96.75,-26.0,973.0,-115.0,17052,16863.694224180173,453.8694761025765,
536,34.401439905166626,0.06600666046142578,15.149986274254836,15.580743174633808,101531.75,-19.0,838.0,-140.0,102.25,-1.125,-96.375,-19.0,974.0,-109.0,17090,16908.955379344137,477.0531164414159,
537,34.47544717788696,0.07400727272033691,13.51218553585753,15.576302672135878,101531.75,-74.0,885.0,-105.0,103.1875,-1.4375,-95.3125,-23.0,975.0,-97.0,17165,16960.16430347531,498.5422531924808,
538,34.5444540977478,0.06900691986083984,14.491300322005555,15.574135242596757,101533.25,94.0,1284.0,-147.0,102.625,-1.125,-93.0,-20.0,979.0,-51.0,17188,17005.73144278025,514.7207379214846,
539,34.61346101760864,0.06900691986083984,14.491300322005555,15.57197645522355,101533.25,37.0,912.0,-212.0,102.3125,-0.5625,-92.3125,-9.0,979.0,-39.0,17132,17030.9851542242,499.8445758072924,
540,34.68246817588806,0.06900715827941895,14.491250254805019,15.569826151398841,101533.25,-44.0,837.0,-187.0,103.0625,-0.25,-92.625,-5.0,979.0,-44.0,17141,17052.98812337936,481.7451714641823,
541,34.74847459793091,0.06600642204284668,15.150040996781662,15.569028749026403,101533.25,-105.0,1004.0,-120.0,104.25,-0.5625,-92.75,-9.0,979.0,-47.0,17104,17063.19049870349,449.02729476027656,
542,34.822481870651245,0.07400727272033691,13.51218553585753,15.56465739614049,101533.25,58.0,1117.0,-101.0,102.8125,-0.3125,-93.4375,-5.0,978.0,-59.0,17170,17084.55239896279,432.98916125446397,
543,34.889488697052,0.06700682640075684,14.923852594050105,15.563426701804344,101528.75,109.0,915.0,-110.0,100.9375,0.1875,-95.0625,3.0,976.0,-87.0,17184,17104.441919170233,419.37307190324185,
544,34.96449613571167,0.07500743865966797,13.332011036096171,15.558639766708234,101528.75,86.0,964.0,-108.0,99.8125,0.625,-97.0,11.0,973.0,-119.0,17230,17129.553535336185,410.91459909878597,
545,35.036503314971924,0.0720071792602539,13.887504138798755,15.555205241246453,101528.75,-7.0,949.0,-106.0,99.9375,0.625,-98.5625,11.0,969.0,-146.0,17253,17154.24282826895,404.1104049676876,
546,35.10551047325134,0.06900715827941895,14.491250254805019,15.553113817160554,101528.75,-17.0,1012.0,-93.0,99.9375,0.375,-99.4375,6.0,967.0,-160.0,17291,17181.594262615163,403.33501246480165,
547,35.17051672935486,0.06500625610351562,15.383134792559122,15.552799642077757,101528.75,44.0,981.0,-173.0,99.375,0.4375,-99.25,8.0,967.0,-158.0,17324,17210.07541009213,406.81444428681493,
548,35.252525091171265,0.08200836181640625,12.193878500325612,15.544985744503238,101528.75,-51.0,912.0,-206.0,100.375,0.0,-99.0,0.0,968.0,-154.0,17366,17241.260328073706,404.15950994912953,
549,35.322532176971436,0.0700070858001709,14.284268350412592,15.54248708018507,101531.25,-33.0,1038.0,-200.0,101.5,-0.5625,-98.25,-9.0,970.0,-140.0,17427,17278.408262458965,416.80666529647226,
550,35.390538692474365,0.06800651550292969,14.704473425886972,15.540876751812624,101531.25,-22.0,964.0,-242.0,102.5,-0.9375,-97.125,-16.0,972.0,-122.0,17530,17328.726609967172,449.11647914372384,
551,35.45754551887512,0.06700682640075684,14.923852594050105,15.53971071423108,101531.25,-91.0,823.0,-235.0,103.5625,-1.3125,-97.125,-23.0,972.0,-122.0,17605,17383.981287973736,486.6660981995179,
552,35.52755260467529,0.0700070858001709,14.284268350412592,15.537236863519805,101531.25,-33.0,828.0,-177.0,104.875,-2.125,-97.1875,-37.0,972.0,-123.0,17629,17432.98503037899,507.99774904867945,
553,35.59355902671814,0.06600642204284668,15.150040996781662,15.536518828726656,101531.25,-21.0,936.0,-137.0,105.625,-2.625,-97.0,-45.0,972.0,-120.0,17704,17487.188024303192,539.3157321538083,
554,35.67056679725647,0.07700777053833008,12.985702520789859,15.53101197266677,0,0,0,0,0,0,0,0,0,0,17704,17530.550419442556,541.6932753252997,
555,35.76257610321045,0.09200930595397949,10.86846585387974,15.519016258735817,101532.75,-77.0,938.0,-78.0,106.5,-2.375,-97.0,-41.0,972.0,-119.0,17736,17571.640335554046,532.1823828124213,
556,35.84058356285095,0.07800745964050293,12.81928682985571,15.513140265280121,101532.75,-49.0,897.0,-73.0,107.125,-2.3125,-96.75,-39.0,972.0,-115.0,17802,17617.71226844324,538.025076782423,
557,35.90159010887146,0.06100654602050781,16.391683601688293,15.514633148863302,101532.75,-64.0,957.0,-62.0,107.875,-2.375,-96.4375,-41.0,973.0,-110.0,17783,17650.769814754593,538.409453082566,
558,35.97059679031372,0.06900668144226074,14.491350389552059,15.51267006362986,101532.75,26.0,1063.0,-114.0,107.875,-2.1875,-95.0625,-37.0,976.0,-87.0,17783,17677.215851803674,522.8923867036409,
559,36.04060387611389,0.0700070858001709,14.284268350412592,15.510283954217547,101533.0,-86.0,1051.0,-139.0,108.4375,-2.375,-94.75,-41.0,976.0,-82.0,17896,17720.97268144294,533.1065777063351,
560,36.10761070251465,0.06700682640075684,14.923852594050105,15.509195682144647,101533.0,13.0,999.0,-144.0,107.8125,-2.125,-94.5,-37.0,976.0,-77.0,17877,17752.178145154354,526.3664939915116,
561,36.17661738395691,0.06900668144226074,14.491350389552059,15.507254148332406,101533.0,14.0,1156.0,-166.0,106.9375,-1.875,-93.5625,-32.0,978.0,-61.0,17948,17791.342516123485,530.4843068423677,
562,36.241623878479004,0.06500649452209473,15.38307837319416,15.507031414608514,101533.0,-3.0,902.0,-188.0,106.375,-1.4375,-92.9375,-25.0,979.0,-50.0,18069,17846.87401289879,562.8604128656586,
563,36.3066303730011,0.06500649452209473,15.38307837319416,15.506809478487622,101533.0,25.0,831.0,-203.0,105.875,-0.625,-93.4375,-11.0,978.0,-59.0,18060,17889.49921031903,572.1450468379389,
564,36.37463736534119,0.06800699234008789,14.704370324145813,15.505309216838974,101533.0,-91.0,961.0,-131.0,106.5,-0.75,-93.6875,-12.0,978.0,-63.0,18121,17935.799368255226,583.0120089901706,
565,36.43864369392395,0.06400632858276367,15.623455088615893,15.505516746064078,101532.75,14.0,1089.0,-90.0,106.0625,-0.75,-93.9375,-12.0,978.0,-68.0,18173,17983.239494604182,598.8286764322717,
566,36.503649950027466,0.06500625610351562,15.383134792559122,15.50529880641632,101532.75,73.0,928.0,-119.0,104.6875,-0.25,-95.0,-4.0,976.0,-86.0,18220,18030.59159568335,611.7881841502146,
567,36.56765651702881,0.06400656700134277,15.623396892681672,15.505505520594674,101532.75,81.0,915.0,-124.0,104.125,0.0,-96.0625,0.0,975.0,-104.0,18234,18071.27327654668,614.1679703741154,
568,36.627662658691406,0.060006141662597656,16.664960823890276,15.507405025890147,101532.75,-6.0,988.0,-78.0,104.5625,0.0,-96.6875,0.0,973.0,-114.0,18215,18100.018621237345,600.6551776506204,
569,36.69266891479492,0.06500625610351562,15.383134792559122,15.50718486358381,101532.75,-96.0,964.0,-68.0,104.75,-0.1875,-97.3125,-4.0,972.0,-125.0,18252,18130.414896989878,587.3486605948599,
570,36.76167607307434,0.06900715827941895,14.491250254805019,15.505277802539853,101532.75,-24.0,981.0,-101.0,103.4375,-0.5,-97.75,-8.0,971.0,-133.0,18271,18158.531917591903,569.3588727317194,
571,36.833683252334595,0.0720071792602539,13.887504138798755,15.502115172362211,101528.75,18.0,963.0,-197.0,102.125,-0.375,-97.4375,-6.0,972.0,-127.0,18337,18194.225534073525,561.992510120269,
572,36.90068984031677,0.06700658798217773,14.923905695153106,15.501065223313171,101528.75,-66.0,902.0,-228.0,102.1875,-0.625,-96.8125,-11.0,973.0,-116.0,18351,18225.58042725882,552.5870060061386,
573,36.96569633483887,0.06500649452209473,15.38307837319416,15.500857736040203,101528.75,-51.0,1173.0,-198.0,103.0,-1.25,-95.4375,-22.0,975.0,-93.0,18501,18280.664341807056,582.0643228653078,
574,37.03970384597778,0.07400751113891602,13.51214200573435,15.496884164810401,101528.75,-66.0,953.0,-192.0,104.4375,-1.875,-94.3125,-33.0,977.0,-74.0,18557,18335.931473445646,598.5356236738005,
575,37.10671043395996,0.06700658798217773,14.923905695153106,15.495849491248935,101528.75,-127.0,863.0,-174.0,105.6875,-2.5625,-94.6875,-44.0,976.0,-80.0,18538,18376.345178756517,598.995093991536,
576,37.16571617126465,0.0590057373046875,16.947504525471942,15.49815419527271,101527.0,-34.0,919.0,-157.0,105.5625,-3.0,-95.1875,-51.0,975.0,-89.0,18548,18410.676143005214,597.2780017892425,
577,37.22972249984741,0.06400632858276367,15.623455088615893,15.498369615899362,101527.0,16.0,921.0,-158.0,104.8125,-2.8125,-95.5625,-48.0,974.0,-95.0,18557,18439.94091440417,583.2718857733402,
578,37.29072880744934,0.06100630760192871,16.391747661980858,15.499831150646122,101527.0,-42.0,968.0,-147.0,104.625,-2.5625,-95.8125,-44.0,974.0,-99.0,18576,18467.152731523336,569.5496211601386,
579,37.36073565483093,0.0700068473815918,14.28431699758199,15.497553510436092,101527.0,-119.0,1037.0,-119.0,105.0,-2.4375,-96.0,-42.0,974.0,-103.0,18632,18500.12218521867,559.6892718262524,
580,37.42874264717102,0.06800699234008789,14.704370324145813,15.49611231847881,101527.0,-24.0,927.0,-52.0,105.125,-2.3125,-96.625,-40.0,973.0,-113.0,18707,18541.497748174937,564.5605046515211,
581,37.49574947357178,0.06700682640075684,14.923852594050105,15.495089661016316,101527.0,-64.0,845.0,-37.0,105.3125,-2.3125,-97.1875,-40.0,972.0,-123.0,18660,18565.19819853995,543.4746569523749,
582,37.57475709915161,0.07900762557983398,12.657006113790127,15.489122084388425,101526.75,-7.0,923.0,-60.0,104.75,-1.9375,-97.0,-34.0,972.0,-119.0,18731,18598.358558831962,531.0982795522845,
583,37.64176392555237,0.06700682640075684,14.923852594050105,15.48811583731978,101526.75,4.0,989.0,-89.0,104.5625,-1.6875,-95.8125,-29.0,975.0,-100.0,18820,18642.686847065568,544.1433355315464,
584,37.715771436691284,0.07400751113891602,13.51214200573435,15.484238496361854,101526.75,-30.0,988.0,-140.0,104.375,-1.375,-94.9375,-24.0,976.0,-85.0,18834,18680.949477652455,541.4300117786892,
585,37.784778118133545,0.06900668144226074,14.491350389552059,15.482425175847434,0,0,0,0,0,0,0,0,0,0,18872,18719.159582121967,542.6586118297289,
586,37.86078596115112,0.07600784301757812,13.156537013801756,15.477755813133236,101526.75,-80.0,1238.0,-132.0,104.375,-1.25,-93.1875,-21.0,978.0,-55.0,18951,18765.527665697573,549.3970914289072,
587,37.922791957855225,0.06200599670410156,16.127472392260604,15.478818137977587,101536.25,59.0,1066.0,-191.0,104.125,-1.3125,-91.8125,-23.0,979.0,-32.0,19012,18814.82213255806,573.9568976243872,
588,37.984798192977905,0.062006235122680664,16.127410380931508,15.47987689740316,101536.25,48.0,785.0,-233.0,104.1875,-1.125,-92.0625,-19.0,979.0,-35.0,19050,18861.85770604645,592.4174074769194,
589,38.04380416870117,0.0590059757232666,16.947436047662723,15.482153083013008,101536.25,-56.0,933.0,-156.0,105.625,-1.5625,-92.375,-25.0,979.0,-41.0,19097,18908.88616483716,612.8768465068003,
590,38.100809812545776,0.05700564384460449,17.542122719041068,15.485235166989172,101536.25,-53.0,1132.0,-70.0,106.75,-2.0625,-92.6875,-35.0,978.0,-46.0,19097,18946.50893186973,617.5874814876403,
591,38.16481614112854,0.06400632858276367,15.623455088615893,15.48546697603779,101536.25,13.0,953.0,-75.0,106.0,-2.0625,-94.125,-36.0,977.0,-70.0,19144,18986.007145495783,617.5385900055991,
592,38.24182391166687,0.07700777053833008,12.985702520789859,15.480433186644944,101536.25,110.0,926.0,-139.0,103.8125,-1.1875,-95.75,-20.0,975.0,-98.0,19205,19029.80571639663,612.6602522604504,
593,38.31583118438721,0.07400727272033691,13.51218553585753,15.47663150373294,101529.5,-40.0,982.0,-131.0,103.3125,-1.0,-97.125,-18.0,972.0,-125.0,19228,19069.444573117304,604.9549856783075,
594,38.374837160110474,0.0590059757232666,16.947436047662723,15.478893044462106,101529.5,-94.0,910.0,-86.0,103.1875,-1.25,-98.0625,-22.0,970.0,-139.0,19233,19102.155658493844,599.8963898573327,
595,38.44184398651123,0.06700682640075684,14.923852594050105,15.477925570083947,101529.5,25.0,992.0,-100.0,102.0,-1.3125,-98.4375,-23.0,969.0,-144.0,19336,19148.924526795076,609.703920523411,
596,38.521851778030396,0.08000779151916504,12.498782693688781,15.471738052320422,101529.5,-69.0,917.0,-150.0,101.125,-1.1875,-98.8125,-21.0,969.0,-148.0,,19148.924526795076,609.703920523411,
597,38.597859621047974,0.07600784301757812,13.156537013801756,15.467178902180557,101529.5,-58.0,896.0,-162.0,100.4375,-1.375,-98.9375,-24.0,968.0,-153.0,19448,19208.739621436063,627.429479133891,
598,38.66286587715149,0.06500625610351562,15.383134792559122,15.467037593646124,101529.5,124.0,1288.0,-224.0,99.0625,-1.0625,-96.875,-18.0,973.0,-117.0,19481,19263.19169714885,648.4508932629451,
599,38.73087286949158,0.06800699234008789,14.704370324145813,15.465698436965361,101529.25,-192.0,957.0,-212.0,100.3125,-2.0,-96.1875,-34.0,974.0,-106.0,19575,19325.55335771908,675.304699041985,
600,38.796879291534424,0.06600642204284668,15.150040996781662,15.465161398456125,101529.25,-90.0,810.0,-220.0,100.125,-2.25,-96.8125,-39.0,972.0,-116.0,19575,19375.442686175265,683.3567662790981,
601,38.866886377334595,0.0700070858001709,14.284268350412592,15.463034372377097,101529.25,40.0,841.0,-253.0,98.6875,-2.0625,-97.9375,-36.0,970.0,-135.0,19580,19416.354148940212,673.4601209254297,
602,38.93089270591736,0.06400632858276367,15.623455088615893,15.463298120273983,0,0,0,0,0,0,0,0,0,0,19622,19457.483319152172,670.3720831967458,
603,38.9998996257782,0.06900691986083984,14.491300322005555,15.461578254971414,101529.25,-38.0,1062.0,-147.0,98.6875,-2.625,-97.5625,-45.0,970.0,-129.0,19655,19496.986655321736,660.580345692501,
604,39.08090782165527,0.0810081958770752,12.344429957648195,15.455116927076991,0,0,0,0,0,0,0,0,0,0,19655,19528.589324257387,633.5340044383402,
605,39.16791653633118,0.08700871467590332,11.493101624646176,15.446315594520254,101529.25,-30.0,877.0,-57.0,101.1875,-3.375,-98.6875,-58.0,967.0,-146.0,19758,19574.47145940591,622.9134081962799,
606,39.23792362213135,0.0700070858001709,14.284268350412592,15.444242305884863,101529.25,-99.0,856.0,-7.0,102.0625,-3.4375,-98.375,-58.0,968.0,-140.0,19749,19609.37716752473,610.4823175496897,
607,39.30793070793152,0.0700070858001709,14.284268350412592,15.442176402267853,101529.25,-13.0,1044.0,-64.0,102.375,-3.25,-97.0,-56.0,971.0,-120.0,19824,19652.301734019784,610.7486884587688,
608,39.36993670463562,0.06200599670410156,16.127472392260604,15.44325571466847,101529.25,6.0,988.0,-185.0,102.625,-2.875,-95.3125,-49.0,975.0,-91.0,19847,19691.24138721583,612.4736378012333,
609,39.4369432926178,0.06700658798217773,14.923905695153106,15.442373296563243,101529.75,-127.0,942.0,-144.0,103.25,-3.0625,-94.5625,-52.0,976.0,-78.0,19899,19732.793109772665,613.2376729120493,
610,39.52995276451111,0.09300947189331055,10.751593140396299,15.431336425669626,101529.75,120.0,1220.0,-202.0,101.4375,-2.375,-92.3125,-40.0,978.0,-40.0,20030,19792.234487818132,615.8228568657789,
611,39.59295892715454,0.06300616264343262,15.871463330646657,15.432036820591101,101529.75,-16.0,838.0,-215.0,101.5,-1.8125,-92.75,-31.0,979.0,-47.0,20049,19843.587590254505,635.7454594025844,
612,39.65396499633789,0.06100606918334961,16.391811722774136,15.433513396617947,101529.75,-146.0,846.0,-142.0,103.0625,-2.0625,-93.25,-35.0,978.0,-56.0,20063,19887.470072203607,644.1022516660973,
613,39.72097182273865,0.06700682640075684,14.923852594050105,15.432653630319345,101529.75,-49.0,1050.0,-138.0,103.6875,-2.5625,-93.3125,-43.0,978.0,-56.0,20068,19923.576057762886,633.5760671244464,
614,39.78597831726074,0.06500649452209473,15.38307837319416,15.43257262907677,0,0,0,0,0,0,0,0,0,0,20030,19944.860846210307,602.9610172963556,
615,39.8739869594574,0.08800864219665527,11.362520487084671,15.423589334703662,101533.25,27.0,821.0,-131.0,102.0625,-2.4375,-96.125,-42.0,974.0,-104.0,20058,19967.48867696825,568.3758346232595,
616,39.96999669075012,0.09600973129272461,10.41561086085216,15.411559944976304,0,0,0,0,0,0,0,0,0,0,20143,20002.5909415746,548.0994040083743,
617,40.057005405426025,0.08700871467590332,11.493101624646176,15.403048574280659,0,0,0,0,0,0,0,0,0,0,20161,20034.27275325968,529.7016917424907,
618,40.12801241874695,0.07100701332092285,14.083115923780744,15.400712937162162,101533.25,-72.0,776.0,-153.0,100.9375,-2.25,-97.4375,-39.0,971.0,-126.0,20255,20078.418202607747,538.9020706358633,
619,40.18901872634888,0.06100630760192871,16.391747661980858,15.40221731251599,101527.5,-175.0,738.0,-146.0,101.875,-2.5625,-97.6875,-44.0,970.0,-131.0,20213,20105.3345620862,529.1324808272711,
620,40.27502727508545,0.08600854873657227,11.626751232168894,15.394154689586975,101527.5,2.0,1298.0,-149.0,100.75,-2.625,-95.5,-45.0,975.0,-94.0,20246,20133.46764966896,508.928873816304,
621,40.36503624916077,0.09000897407531738,11.110003311039003,15.384601568713103,0,0,0,0,0,0,0,0,0,0,20302,20167.17411973517,495.4838858385751,
622,40.43504333496094,0.0700070858001709,14.284268350412592,15.38269651023736,101527.5,-62.0,774.0,-193.0,98.875,-2.375,-94.8125,-42.0,976.0,-79.0,20335,20200.73929578814,493.8808954516628,
623,40.50304985046387,0.06800651550292969,14.704473425886972,15.381557741950264,101527.5,-6.0,841.0,-201.0,97.625,-2.125,-95.75,-36.0,975.0,-98.0,20391,20238.791436630512,500.4464752879759,
624,40.56605625152588,0.06300640106201172,15.871403272435558,15.382318560398103,101526.25,43.0,910.0,-196.0,97.0625,-2.125,-95.9375,-37.0,974.0,-102.0,20415,20274.03314930441,506.33537114505265,
625,40.631062746047974,0.06500649452209473,15.38307837319416,15.382319776038626,101526.25,12.0,1162.0,-121.0,96.9375,-1.875,-95.5625,-32.0,975.0,-95.0,20447,20308.62651944353,508.91708643484503,
626,40.693068981170654,0.062006235122680664,16.127410380931508,15.383455110983652,0,0,0,0,0,0,0,0,0,0,20504,20347.701215554825,521.0427437610671,
627,40.78207802772522,0.08900904655456543,11.234813074724574,15.374400479880926,0,0,0,0,0,0,0,0,0,0,20551,20388.36097244386,514.6189462161664,
628,40.86908674240112,0.08700871467590332,11.493101624646176,15.366137343814403,0,0,0,0,0,0,0,0,0,0,20574,20425.488777955088,505.8284157786128,
629,40.94909453392029,0.08000779151916504,12.498782693688781,15.36053500472315,101529.25,43.0,1070.0,-120.0,95.4375,-0.375,-96.625,-7.0,974.0,-113.0,20644,20469.19102236407,509.8680598101853,
630,41.03010272979736,0.0810081958770752,12.344429957648195,15.354580127396902,101529.25,3.0,1025.0,-196.0,94.5625,0.25,-96.3125,5.0,974.0,-107.0,20738,20522.95281789126,525.2471257574456,
631,41.10310983657837,0.07300710678100586,13.697296661811674,15.351636470057606,101529.25,-88.0,880.0,-174.0,94.6875,0.0,-96.0625,0.0,975.0,-104.0,20757,20569.76225431301,536.8386869057938,
632,41.19011855125427,0.08700871467590332,11.493101624646176,15.34348582205659,101529.25,161.0,1131.0,-182.0,92.375,0.3125,-93.4375,5.0,978.0,-58.0,20832,20622.20980345041,543.4333194351902,
633,41.262125730514526,0.0720071792602539,13.887504138798755,15.340944965709276,101529.25,84.0,809.0,-199.0,91.875,0.625,-93.4375,10.0,978.0,-59.0,20860,20669.767842760328,555.1362342666366,
634,41.32513236999512,0.06300663948059082,15.871343214678982,15.341753640947259,101527.5,44.0,936.0,-169.0,92.5625,0.4375,-93.625,7.0,978.0,-62.0,20851,20706.014274208264,557.1505662217265,
635,41.39013862609863,0.06500625610351562,15.383134792559122,15.341818633088595,101527.5,-39.0,1010.0,-135.0,93.0625,0.1875,-93.8125,3.0,978.0,-66.0,20926,20750.011419366612,569.1169110454193,
