Index,Time,Difference,Hz,AveHz,0x6103 Pressure,0x6103 Acceleration-X,0x6103 Acceleration-Y,0x6103 Acceleration-Z,0x6103 Magnetic-X,0x6103 Magnetic-Y,0x6103 Magnetic-Z,0x6103 Angular-Vel-X,0x6103 Angular-Vel-Y,0x6103 Angular-Vel-Z,0x6103 Heading,0x6103 Roll,0x6103 Pitch,0x6103 Quaternion-X,0x6103 Quaternion-Y,0x6103 Quaternion-Z,0x6103 Quaternion-W,0x6103 Linear-Acceleration-X,0x6103 Linear-Acceleration-Y,0x6103 Linear-Acceleration-Z,0x6103 Gravity-X,0x6103 Gravity-Y,0x6103 Gravity-Z,0x6103 Range,0x6103 Smoothed Range,0x6103 Velocity,
0,0.0,0.0,0,0,101825.0,351.0,-707.0,616.0,-22.6875,63.1875,-8.75,17.3125,36.375,5.3125,323.0,20.6875,60.0625,0.3834228515625,0.34619140625,-0.271484375,-0.81207275390625,4.0,87.0,159.0,347.0,-795.0,457.0,1677,1647.4,,
1,0.04700469970703125,0.04700469970703125,21.274468430449602,21.274468430449602,101825.0,377.0,-789.0,523.0,-22.375,62.5,-8.75,-37.875,64.0,-16.5625,324.9375,19.8125,60.0625,0.3941650390625,0.33221435546875,-0.25787353515625,-0.81719970703125,44.0,10.0,64.0,333.0,-799.0,459.0,1696,1657.1200000000001,20.678783314397073,
2,0.09700965881347656,0.05000495910644531,19.998016554144257,20.61650380448674,101825.0,372.0,-757.0,440.0,-21.875,61.6875,-9.5625,-32.875,48.75,-9.75,327.375,18.9375,60.8125,0.4105224609375,0.31787109375,-0.23974609375,-0.8203125,53.0,52.0,-11.0,318.0,-809.0,451.0,1701,1665.8960000000002,36.1611643108745,
3,0.1440143585205078,0.04700469970703125,21.274468430449602,20.831256208198134,101825.0,450.0,-817.0,464.0,-21.5,62.5,-10.0,-36.375,51.125,-12.125,328.75,18.5625,61.3125,0.41961669921875,0.31109619140625,-0.22943115234375,-0.8212890625,138.0,-1.0,18.0,312.0,-815.0,445.0,1691,1670.9168000000002,43.226532989347206,
4,0.19301915168762207,0.04900479316711426,20.406167139402843,20.723332192825673,101817.25,304.0,-826.0,325.0,-22.25,62.0625,-7.25,-6.5625,70.75,-9.1875,331.5625,17.5,61.5625,0.43341064453125,0.29217529296875,-0.2093505859375,-0.826416015625,8.0,-3.0,-119.0,295.0,-822.0,444.0,1668,1670.3334400000003,37.713465524168576,
5,0.24002385139465332,0.04700469970703125,21.274468430449602,20.831263105510597,101817.25,281.0,-770.0,499.0,-21.5,61.375,-8.875,25.25,61.0,-12.5625,333.4375,16.4375,59.8125,0.43115234375,0.270751953125,-0.19732666015625,-0.8377685546875,3.0,43.0,27.0,278.0,-813.0,472.0,1752,1686.6667520000005,68.69037202262052,
6,0.2910289764404297,0.05100512504577637,19.60587292164296,20.61650380448674,101817.25,204.0,-689.0,503.0,-21.375,61.6875,-9.6875,21.4375,56.6875,-19.125,335.6875,15.5625,57.875,0.42633056640625,0.25,-0.18267822265625,-0.84991455078125,-59.0,110.0,1.0,264.0,-800.0,501.0,1846,1718.5334016000006,124.29868306997106,
7,0.34203410148620605,0.05100512504577637,19.60587292164296,20.465795572966588,101817.25,219.0,-686.0,584.0,-22.1875,60.5625,-10.875,-0.6875,49.8125,-32.375,338.1875,15.375,56.5625,0.42315673828125,0.23577880859375,-0.16522216796875,-0.85906982421875,-40.0,102.0,64.0,260.0,-789.0,520.0,1823,1739.4267212800005,152.8319918187079,
8,0.39203929901123047,0.050005197525024414,19.9979212060819,20.40611749938577,101817.25,243.0,-728.0,566.0,-21.75,59.875,-12.5,-29.5,49.9375,-36.1875,341.4375,15.5,56.6875,0.43023681640625,0.22509765625,-0.14068603515625,-0.86279296875,-18.0,61.0,48.0,262.0,-790.0,518.0,1832,1757.9413770240005,174.57425530946156,
9,0.4410440921783447,0.04900479316711426,20.406167139402843,20.406123014931296,101817.25,256.0,-771.0,511.0,-23.1875,60.0625,-11.375,-44.3125,60.0625,-32.9375,344.8125,15.4375,57.75,0.4442138671875,0.2137451171875,-0.11480712890625,-0.86248779296875,-4.0,27.0,7.0,261.0,-799.0,504.0,1897,1785.7531016192006,213.86989983098476,
10,0.4920492172241211,0.05100512504577637,19.60587292164296,20.32317022352898,101817.25,201.0,-812.0,483.0,-24.6875,59.0625,-11.0,-38.125,65.875,-22.875,348.1875,14.9375,58.8125,0.4595947265625,0.19732666015625,-0.08892822265625,-0.861328125,-51.0,-1.0,-6.0,253.0,-810.0,489.0,1850,1798.6024812953606,217.67524035315972,
11,0.5370538234710693,0.04500460624694824,22.219947765187033,20.48211840091771,101817.25,180.0,-804.0,439.0,-23.75,59.0625,-9.75,-30.875,70.125,-22.8125,351.375,14.125,59.625,0.4725341796875,0.177734375,-0.064697265625,-0.86077880859375,-59.0,16.0,-40.0,240.0,-820.0,480.0,1888,1816.4819850362887,235.63588023693273,
12,0.5920591354370117,0.05500531196594238,18.18006232960136,20.268245656141325,101820.75,178.0,-848.0,468.0,-24.1875,58.6875,-9.875,-36.0,78.3125,-18.4375,354.6875,13.1875,60.25,0.48406982421875,0.1556396484375,-0.03985595703125,-0.86016845703125,-46.0,-19.0,-4.0,224.0,-828.0,473.0,1799,1812.985588029031,205.7158206611419,
13,0.640064001083374,0.048004865646362305,20.83122172170432,20.310468918727135,101820.75,204.0,-842.0,419.0,-23.75,58.25,-9.5,-50.1875,79.4375,-18.8125,358.0,12.125,61.4375,0.499267578125,0.13153076171875,-0.01458740234375,-0.8563232421875,-1.0,0.0,-38.0,206.0,-842.0,457.0,1729,1796.188470423225,150.15379048181873,
14,0.6900689601898193,0.05000495910644531,19.998016554144257,20.287827460242493,101820.75,186.0,-891.0,391.0,-24.5625,58.0,-9.1875,-60.125,81.5625,-9.3125,1.4375,10.875,63.3125,0.51861572265625,0.10504150390625,0.0108642578125,-0.84844970703125,0.0,-30.0,-40.0,185.0,-860.0,431.0,1804,1797.75077633858,138.26271338942746,
15,0.7380735874176025,0.0480046272277832,20.831325181528314,20.323176788485984,101820.75,222.0,-865.0,351.0,-24.1875,58.6875,-8.0,-71.5625,76.875,-6.625,4.625,9.625,65.9375,0.5413818359375,0.078369140625,0.03411865234375,-0.83642578125,58.0,17.0,-41.0,164.0,-882.0,393.0,1719,1782.000621070864,91.6267814463497,
16,0.7890787124633789,0.05100512504577637,19.60587292164296,20.2768111055113,101820.75,119.0,-850.0,309.0,-24.5625,58.6875,-6.75,-79.4375,79.0,5.375,7.625,8.0625,69.125,0.56683349609375,0.04791259765625,0.0550537109375,-0.820556640625,-18.0,56.0,-36.0,138.0,-907.0,345.0,1864,1798.4004968566912,114.61749136048036,
17,0.8410840034484863,0.05200529098510742,19.22881270458359,20.212012034825477,101820.75,215.0,-923.0,56.0,-23.0625,59.0625,-5.1875,-87.5625,66.8125,6.8125,9.9375,6.6875,72.8125,0.593994140625,0.02130126953125,0.07000732421875,-0.80108642578125,114.0,7.0,-231.0,114.0,-930.0,287.0,1996,1837.920397485353,179.14781895366173,
18,0.8880887031555176,0.04700469970703125,21.274468430449602,20.268245656141325,101820.75,52.0,-963.0,210.0,-23.375,59.5,-2.375,-49.375,72.9375,26.75,12.375,4.875,75.75,0.61456298828125,-0.0120849609375,0.08538818359375,-0.78411865234375,-31.0,-16.0,-29.0,84.0,-947.0,239.0,1996,1869.5363179882827,228.4942273222136,
19,0.9370937347412109,0.04900503158569336,20.4060678596102,20.27545302631552,101820.75,23.0,-960.0,243.0,-22.6875,59.0625,-2.375,-45.0625,64.6875,34.5,13.5,2.6875,77.6875,0.6259765625,-0.0439453125,0.091796875,-0.77313232421875,-22.0,-3.0,35.0,46.0,-957.0,208.0,1986,1892.8290543906262,253.1761205562157,
20,0.9840984344482422,0.04700469970703125,21.274468430449602,20.32317022352898,101819.75,-50.0,-971.0,235.0,-21.1875,59.75,0.75,-25.4375,64.375,37.0625,14.4375,0.375,79.3125,0.63397216796875,-0.07574462890625,0.09698486328125,-0.76348876953125,-57.0,-7.0,54.0,7.0,-963.0,181.0,2024,1919.063243512501,283.67035132777113,
21,1.0311028957366943,0.04700446128845215,21.27457633996277,20.366541580698485,101819.75,-46.0,-989.0,143.0,-19.375,59.0625,0.0625,-12.875,62.1875,33.3125,15.375,-1.8125,80.125,0.635009765625,-0.10711669921875,0.10247802734375,-0.75811767578125,-14.0,-24.0,-23.0,-31.0,-965.0,167.0,1996,1934.450594810001,288.03925417984266,
22,1.0801076889038086,0.04900479316711426,20.406167139402843,20.368339403571508,101819.75,28.0,-1047.0,171.0,-18.1875,59.0625,0.5,-13.0625,58.125,39.5,16.125,-3.9375,80.875,0.63446044921875,-0.13592529296875,0.1070556640625,-0.75335693359375,96.0,-81.0,16.0,-67.0,-965.0,154.0,2141,1975.7604758480009,343.53296245888595,
23,1.129112958908081,0.04900527000427246,20.405968580783583,20.3699725687697,101819.75,37.0,-1061.0,144.0,-18.1875,59.0625,0.5,-20.125,56.8125,59.25,16.0,-6.25,81.75,0.6343994140625,-0.1622314453125,0.10546875,-0.7484130859375,144.0,-96.0,5.0,-106.0,-964.0,139.0,2155,2011.6083806784009,382.3307881786036,
24,1.1741173267364502,0.04500436782836914,22.220065479280787,20.44088734020292,101819.75,-164.0,-1125.0,91.0,-17.0625,59.5,0.5625,-52.0,67.5625,56.75,15.5625,-9.4375,84.0,0.63934326171875,-0.19964599609375,0.100830078125,-0.73565673828125,-3.0,-163.0,-9.0,-161.0,-962.0,100.0,2160,2041.2867045427208,410.0431393187924,
25,1.2211220264434814,0.04700469970703125,21.274468430449602,20.472974410929687,101819.75,-133.0,-1203.0,75.0,-14.1875,59.75,1.875,-47.375,78.25,12.4375,17.1875,-10.875,87.3125,0.6512451171875,-0.23065185546875,0.1082763671875,-0.71478271484375,51.0,-241.0,31.0,-185.0,-962.0,44.0,2066,2046.2293636341767,379.5540698672785,
26,1.2701268196105957,0.04900479316711426,20.406167139402843,20.47039681279328,101819.75,-197.0,-1109.0,46.0,-11.75,60.5,3.875,-23.4375,88.6875,73.3125,18.3125,-13.25,89.625,0.6517333984375,-0.26922607421875,0.11297607421875,-0.70001220703125,27.0,-154.0,40.0,-225.0,-954.0,5.0,2117,2060.3834909073416,370.48181156540903,
27,1.321131944656372,0.05100512504577637,19.60587292164296,20.437020018483263,101819.75,-296.0,-1217.0,95.0,-11.6875,62.0,4.375,-38.0,86.0,56.0625,19.0625,-16.75,92.375,0.64630126953125,-0.31988525390625,0.11474609375,-0.6832275390625,-13.0,-279.0,134.0,-283.0,-938.0,-39.0,2094,2067.1067927258737,346.6152505156671,
28,1.3701367378234863,0.04900479316711426,20.406167139402843,20.43591652354279,101835.0,-572.0,-986.0,-134.0,-9.5,60.875,5.1875,-41.0625,53.5625,6.75,20.25,-17.6875,95.5625,0.65289306640625,-0.3466796875,0.11859130859375,-0.66290283203125,-274.0,-57.0,-43.0,-298.0,-929.0,-91.0,2038,2061.285434180699,300.07456391897836,
29,1.4181416034698486,0.048004865646362305,20.83122172170432,20.449297819797426,101835.0,-265.0,-1021.0,-186.0,-8.375,60.0,7.6875,-23.375,39.25,-38.5,23.3125,-16.25,97.6875,0.66278076171875,-0.35394287109375,0.13360595703125,-0.646240234375,9.0,-89.0,-60.0,-274.0,-932.0,-126.0,2113,2071.6283473445596,291.6126592635516,
30,1.469146966934204,0.05100536346435547,19.605781276293403,20.42001288857002,101835.0,-357.0,-1100.0,-57.0,-7.875,59.0,9.375,-13.0625,30.0625,-41.0,26.5625,-14.125,98.875,0.67169189453125,-0.35162353515625,0.14996337890625,-0.63458251953125,-117.0,-161.0,89.0,-240.0,-939.0,-146.0,2239,2105.1026778756477,328.0804336134828,
31,1.5161516666412354,0.04700469970703125,21.274468430449602,20.446503263538926,101835.0,-156.0,-852.0,-157.0,-10.0625,59.6875,10.6875,2.6875,39.875,-43.25,29.8125,-12.25,99.3125,0.6759033203125,-0.35009765625,0.1669921875,-0.62664794921875,20.0,-10.0,53.0,-208.0,-945.0,-155.0,2343,2152.682142300518,396.495171636595,
32,1.5661566257476807,0.05000495910644531,19.998016554144257,20.432183776461855,101835.0,-195.0,-839.0,-241.0,-11.1875,58.5625,10.375,6.25,29.5,-15.875,33.5625,-10.4375,99.0,0.6744384765625,-0.349609375,0.18804931640625,-0.62255859375,12.0,67.0,-20.0,-178.0,-952.0,-151.0,2361,2194.3457138404146,440.164533808898,
33,1.614161491394043,0.048004865646362305,20.83122172170432,20.444051091505173,101835.0,-158.0,-824.0,-87.0,-13.75,57.875,9.5625,4.9375,5.9375,-18.875,34.875,-9.625,99.0625,0.6759033203125,-0.3480224609375,0.19482421875,-0.6197509765625,6.0,129.0,65.0,-164.0,-954.0,-152.0,2446,2244.676571072332,500.99340507215993,
34,1.6641664505004883,0.05000495910644531,19.998016554144257,20.430648622783316,101835.0,-138.0,-756.0,-60.0,-14.75,56.6875,9.1875,7.875,13.0,-33.8125,36.8125,-8.1875,98.5625,0.67657470703125,-0.3409423828125,0.20635986328125,-0.61920166015625,1.0,203.0,84.0,-140.0,-959.0,-145.0,2544,2304.541256857866,570.6115622997188,
35,1.7111711502075195,0.04700469970703125,21.274468430449602,20.45382777506238,101850.75,-203.0,-754.0,-77.0,-16.0625,56.0,9.5625,-13.375,25.25,-36.3125,39.75,-6.3125,99.0,0.68145751953125,-0.3369140625,0.2210693359375,-0.61090087890625,-95.0,208.0,75.0,-108.0,-962.0,-152.0,2600,2363.633005486293,639.2649601393003,
36,1.7621760368347168,0.051004886627197266,19.605964567849295,20.429286999421738,101850.75,-181.0,-652.0,-6.0,-18.1875,55.1875,8.875,-4.0,34.0625,-42.125,43.25,-4.3125,99.4375,0.68572998046875,-0.334716796875,0.23846435546875,-0.60076904296875,-107.0,312.0,154.0,-73.0,-964.0,-161.0,2759,2442.7064043890346,730.3694898400271,
37,1.810180902481079,0.048004865646362305,20.83122172170432,20.43994605693104,101850.75,-33.0,-644.0,-92.0,-19.375,55.5625,10.0625,-30.6875,15.125,-43.4375,46.6875,-1.875,100.5625,0.69525146484375,-0.3291015625,0.25335693359375,-0.586669921875,-3.0,305.0,76.0,-33.0,-963.0,-179.0,2773,2508.7651235112276,794.9409233246436,
38,1.8611860275268555,0.05100512504577637,19.60587292164296,20.41708858651513,101850.75,-81.0,-773.0,-118.0,-21.1875,54.5,10.0625,-9.4375,12.5625,-31.8125,49.1875,-0.125,101.625,0.70391845703125,-0.3245849609375,0.2630615234375,-0.57440185546875,-28.0,177.0,45.0,-2.0,-960.0,-197.0,2778,2562.612098808982,821.0185264824413,
39,1.9081907272338867,0.04700469970703125,21.274468430449602,20.438208530933593,101850.75,42.0,-788.0,-139.0,-23.0,53.0,10.0625,4.1875,23.375,-31.25,51.875,1.5625,101.5,0.70599365234375,-0.31878662109375,0.2767333984375,-0.56866455078125,7.0,140.0,53.0,27.0,-960.0,-196.0,2675,2585.0896790471857,786.7365309512535,
40,1.958195686340332,0.05000495910644531,19.998016554144257,20.42696768204812,101850.75,18.0,-844.0,-189.0,-23.875,52.5625,10.5,14.9375,19.3125,-29.75,54.6875,3.25,101.125,0.70550537109375,-0.31414794921875,0.29180908203125,-0.564208984375,-38.0,150.0,67.0,56.0,-960.0,-189.0,2661,2600.2717432377485,738.4239949570239,
41,2.0142014026641846,0.05600571632385254,17.855320235840022,20.35546194425706,101850.75,76.0,-901.0,-95.0,-25.0,51.5,10.375,32.5625,20.5,-20.5,57.5,5.0,99.6875,0.7000732421875,-0.3065185546875,0.310302734375,-0.56536865234375,-28.0,24.0,113.0,86.0,-962.0,-164.0,2623,2604.817394590199,672.6980015191698,
42,2.073207378387451,0.0590059757232666,16.947436047662723,20.258465427934066,101850.75,104.0,-941.0,-108.0,-26.875,51.1875,9.1875,54.8125,37.0625,-34.75,60.25,6.625,97.25,0.68853759765625,-0.29815673828125,0.3319091796875,-0.57171630859375,-9.0,24.0,14.0,113.0,-966.0,-123.0,2642,2612.2539156721596,618.0311979126151,
43,2.1252124309539795,0.05200505256652832,19.228900859598856,20.23327144792668,101826.25,80.0,-824.0,-8.0,-27.5625,51.1875,8.0,42.5,32.8125,-37.75,63.6875,8.625,94.4375,0.674560546875,-0.28875732421875,0.35858154296875,-0.5770263671875,-66.0,141.0,67.0,147.0,-966.0,-75.0,2595,2608.803132537728,549.5926014433572,
44,2.1742172241210938,0.04900479316711426,20.406167139402843,20.237168352755816,101826.25,161.0,-900.0,-54.0,-28.0,51.0625,4.375,12.0625,18.125,-25.3125,66.0625,10.0625,93.1875,0.6689453125,-0.28289794921875,0.37481689453125,-0.576171875,-11.0,63.0,0.0,172.0,-963.0,-54.0,2633,2613.642506030182,504.50864773272343,
45,2.2282228469848633,0.05400562286376953,18.51659043952745,20.195466562463487,101826.25,190.0,-930.0,11.0,-29.5,49.5625,4.75,17.125,17.1875,-27.0625,68.0,11.3125,92.3125,0.66558837890625,-0.2777099609375,0.387451171875,-0.57421875,-2.0,29.0,50.0,192.0,-960.0,-39.0,2628,2616.5140048241456,459.3748196709928,
46,2.2782278060913086,0.05000495910644531,19.998016554144257,20.19113272035816,101826.25,251.0,-878.0,-1.0,-30.875,48.0,3.0625,23.25,18.1875,-37.8125,70.375,12.9375,91.125,0.6610107421875,-0.2696533203125,0.40350341796875,-0.572265625,31.0,76.0,17.0,220.0,-955.0,-19.0,2652,2623.6112038593164,427.63032808323396,
47,2.335233211517334,0.05700540542602539,17.542196086960157,20.126469497006436,101826.25,274.0,-924.0,-44.0,-33.5,46.5,0.6875,-0.0625,11.875,-7.3125,71.9375,14.125,90.1875,0.65753173828125,-0.2635498046875,0.414794921875,-0.571044921875,34.0,26.0,-41.0,239.0,-950.0,-3.0,2656,2630.0889630874535,396.23070753332024,
48,2.3872387409210205,0.05200552940368652,19.228724550376615,20.106912298801383,101826.25,303.0,-912.0,-60.0,-33.5,46.0,-0.0625,-9.625,8.6875,-11.6875,72.9375,14.5,90.5,0.658935546875,-0.26507568359375,0.41845703125,-0.56610107421875,56.0,36.0,-52.0,246.0,-949.0,-8.0,2652,2634.471170469963,365.0340626480784,
49,2.4382436275482178,0.051004886627197266,19.605964567849295,20.096433123572673,101826.25,307.0,-850.0,-49.0,-32.6875,46.0,-0.1875,-3.6875,7.375,-9.3125,73.875,15.0625,90.5625,0.6595458984375,-0.2645263671875,0.4229736328125,-0.56219482421875,51.0,96.0,-39.0,255.0,-946.0,-9.0,2652,2637.9769363759706,335.4040485969065,
50,2.489248752593994,0.05100512504577637,19.60587292164296,20.086381462638496,101856.25,276.0,-907.0,-47.0,-34.5625,46.375,1.375,0.4375,15.875,-1.4375,74.5625,15.25,90.4375,0.65814208984375,-0.26593017578125,0.4268798828125,-0.560302734375,18.0,37.0,-40.0,258.0,-945.0,-7.0,2642,2638.781549100777,303.44115722058467,
51,2.5382535457611084,0.04900479316711426,20.406167139402843,20.092555404943752,101856.25,260.0,-927.0,-51.0,-34.1875,45.5,0.1875,-7.1875,8.125,-5.0625,75.25,15.375,90.5,0.65740966796875,-0.2684326171875,0.429931640625,-0.5576171875,0.0,18.0,-43.0,260.0,-945.0,-8.0,2652,2641.4252392806216,278.49179986599717,
52,2.590259075164795,0.05200552940368652,19.228724550376615,20.07521197341687,101856.25,249.0,-918.0,-40.0,-34.0625,45.875,0.1875,-2.8125,13.3125,-6.375,76.0625,15.625,90.5,0.65673828125,-0.270263671875,0.43389892578125,-0.554443359375,-15.0,26.0,-31.0,264.0,-944.0,-8.0,2642,2641.5401914244976,250.86365819050422,
53,2.6402640342712402,0.05000495910644531,19.998016554144257,20.073749940175563,101856.25,283.0,-934.0,-75.0,-34.0625,43.25,-1.375,0.9375,8.875,-1.875,76.875,15.9375,90.4375,0.65576171875,-0.2716064453125,0.43792724609375,-0.55169677734375,13.0,8.0,-68.0,269.0,-942.0,-7.0,2684,2650.0321531395984,242.75953146702838,
54,2.6922690868377686,0.05200505256652832,19.228900859598856,20.05743046413917,101856.25,263.0,-953.0,-37.0,-35.0,44.5,-1.0,6.75,4.5625,0.1875,77.25,15.9375,90.0625,0.65313720703125,-0.2724609375,0.4410400390625,-0.55194091796875,-6.0,-10.0,-36.0,270.0,-942.0,-2.0,2661,2652.225722511679,222.70157111876472,
55,2.740273952484131,0.048004865646362305,20.83122172170432,20.070985950197077,101856.25,268.0,-968.0,5.0,-34.5625,45.875,-1.0,8.25,5.1875,0.4375,77.3125,15.9375,89.6875,0.65087890625,-0.272216796875,0.44281005859375,-0.5533447265625,-1.0,-25.0,1.0,269.0,-942.0,4.0,2694,2660.5805780093438,217.83559873935346,
56,2.789278745651245,0.04900479316711426,20.406167139402843,20.07687474308884,101856.25,218.0,-957.0,0.0,-33.5,44.75,-1.0,7.8125,5.125,2.6875,77.3125,15.8125,89.3125,0.64788818359375,-0.27301025390625,0.44439697265625,-0.55517578125,-49.0,-14.0,-11.0,267.0,-943.0,11.0,2647,2657.864462407475,190.5094879712508,
57,2.8392837047576904,0.05000495910644531,19.998016554144257,20.075485906704937,101856.25,194.0,-1002.0,27.0,-33.75,45.0625,-1.75,6.6875,1.1875,3.625,77.125,15.625,88.8125,0.64483642578125,-0.27294921875,0.4451904296875,-0.55810546875,-69.0,-58.0,8.0,264.0,-944.0,18.0,2689,2664.0915699259804,183.91151909807635,
58,2.890288829803467,0.05100512504577637,19.60587292164296,20.067198614175826,101848.25,249.0,-983.0,16.0,-34.0625,45.5,-2.5625,-0.5,3.75,-4.4375,77.3125,15.6875,88.6875,0.64404296875,-0.272705078125,0.44677734375,-0.55792236328125,-16.0,-39.0,-4.0,265.0,-943.0,21.0,,2664.0915699259804,183.91151909807635,
59,2.932293176651001,0.04200434684753418,23.807059865250682,20.12077116633489,101848.25,269.0,-968.0,29.0,-34.875,45.0625,-2.1875,-5.6875,5.125,-1.0625,77.8125,15.875,88.75,0.644287109375,-0.2735595703125,0.44854736328125,-0.55572509765625,0.0,-25.0,9.0,268.0,-942.0,19.0,2666,2664.473255940785,166.42904936868663,
60,2.9832983016967773,0.05100512504577637,19.60587292164296,20.111968007314076,101848.25,223.0,-961.0,30.0,-34.5,44.75,-3.75,-4.8125,2.5625,0.875,78.0,15.8125,89.0,0.64483642578125,-0.27587890625,0.44873046875,-0.55389404296875,-44.0,-18.0,14.0,267.0,-943.0,15.0,2656,2662.778604752628,146.4636328476663,
61,3.0343031883239746,0.051004886627197266,19.605964567849295,20.103462381323176,101848.25,234.0,-966.0,7.0,-34.0625,44.75,-1.75,0.875,1.25,2.0625,78.0,15.6875,89.0625,0.64447021484375,-0.27734375,0.44866943359375,-0.5535888671875,-31.0,-22.0,-7.0,265.0,-943.0,15.0,2661,2662.4228838021027,131.11984432769577,
62,3.085308313369751,0.05100512504577637,19.60587292164296,20.095236424616527,101848.25,243.0,-935.0,21.0,-34.5,44.5,-2.1875,-0.125,0.1875,5.0625,77.6875,15.375,89.0,0.6435546875,-0.2789306640625,0.447265625,-0.55499267578125,-17.0,9.0,5.0,260.0,-945.0,15.0,2675,2664.938307041682,122.93956673286027,
63,3.1333131790161133,0.048004865646362305,20.83122172170432,20.106512308412952,101848.25,266.0,-918.0,30.0,-34.875,44.0625,-2.1875,0.125,-3.625,8.375,77.3125,15.0625,89.0625,0.64312744140625,-0.28045654296875,0.44512939453125,-0.556396484375,11.0,27.0,15.0,255.0,-946.0,15.0,2666,2665.1506456333454,111.08793728787575,
64,3.1833183765411377,0.050005197525024414,19.9979212060819,20.10480650368995,101848.25,274.0,-888.0,43.0,-34.0625,45.875,-2.1875,-1.5,-2.3125,12.625,76.6875,14.625,89.125,0.6427001953125,-0.2823486328125,0.44195556640625,-0.5584716796875,26.0,59.0,29.0,247.0,-948.0,14.0,2661,2664.3205165066765,98.31905787248833,
65,3.23032283782959,0.04700446128845215,21.27457633996277,20.121827836772074,101843.25,217.0,-923.0,53.0,-33.75,46.25,-2.1875,-6.0,1.0,10.3125,76.125,14.0,89.375,0.6424560546875,-0.28656005859375,0.43829345703125,-0.5594482421875,-20.0,27.0,43.0,237.0,-951.0,10.0,2666,2664.656413205342,89.20175808104901,
66,3.2803280353546143,0.050005197525024414,19.9979212060819,20.1199390087416,101843.25,163.0,-971.0,40.0,-34.0625,45.0625,-1.75,-8.25,3.875,1.4375,76.0,13.6875,89.6875,0.64312744140625,-0.29022216796875,0.4365234375,-0.5582275390625,-68.0,-18.0,36.0,232.0,-952.0,4.0,2698,2671.3251305642734,93.61763070189868,
67,3.3283329010009766,0.048004865646362305,20.83122172170432,20.130197907742385,101843.25,236.0,-1001.0,5.0,-34.0625,45.0625,-1.75,-3.8125,4.75,-10.5625,76.6875,14.125,89.9375,0.64453125,-0.29010009765625,0.43902587890625,-0.5546875,-2.0,-45.0,-6.0,237.0,-951.0,0.0,2717,2680.460104451419,103.28513427821933,
68,3.379337787628174,0.051004886627197266,19.605964567849295,20.12228556995676,101843.25,267.0,-953.0,20.0,-33.375,45.5,-1.375,5.875,-1.25,-1.75,76.875,14.3125,89.6875,0.64410400390625,-0.28802490234375,0.44073486328125,-0.554931640625,39.0,30.0,29.0,243.0,-950.0,4.0,2708,2685.9680835611352,103.75554517695282,
69,3.426342487335205,0.04700469970703125,21.274468430449602,20.138091931861688,101843.25,262.0,-899.0,46.0,-33.0,45.875,-1.375,-1.4375,3.875,-3.625,77.0625,14.4375,89.625,0.64373779296875,-0.28753662109375,0.44183349609375,-0.55474853515625,17.0,50.0,40.0,244.0,-949.0,5.0,2698,2688.374466848908,98.49944318798588,
70,3.4763474464416504,0.05000495910644531,19.998016554144257,20.136077040185153,101843.25,294.0,-890.0,51.0,-33.375,45.5,-1.75,-8.0625,6.625,-2.4375,77.6875,14.75,89.6875,0.6441650390625,-0.28765869140625,0.444580078125,-0.552001953125,44.0,57.0,46.0,250.0,-948.0,4.0,2670,2684.6995734791267,81.30044102482708,
71,3.5223522186279297,0.0460047721862793,21.736875382207526,20.15698476277219,101843.25,245.0,-982.0,-59.0,-33.375,45.875,-1.75,-7.3125,4.9375,0.875,78.3125,14.9375,90.0,0.64501953125,-0.2900390625,0.4466552734375,-0.5479736328125,-19.0,-49.0,-14.0,253.0,-947.0,0.0,2684,2684.5596587833015,72.86626609161529,
72,3.570357084274292,0.048004865646362305,20.83122172170432,20.166050145831466,101843.25,266.0,-924.0,12.0,-33.375,45.875,-2.1875,-8.125,2.75,1.6875,78.3125,14.75,90.3125,0.6458740234375,-0.2923583984375,0.44537353515625,-0.54681396484375,-1.0,11.0,0.0,250.0,-948.0,-5.0,2689,2685.4477270266416,67.42959413055588,
73,3.6203620433807373,0.05000495910644531,19.998016554144257,20.16372924179476,101844.5,261.0,-963.0,-8.0,-32.5625,45.875,-1.0,-1.3125,-2.3125,3.25,78.1875,14.625,90.5625,0.6468505859375,-0.2940673828125,0.4439697265625,-0.5458984375,13.0,-6.0,16.0,248.0,-948.0,-9.0,2666,2681.5581816213135,52.908315377115514,
74,3.6703670024871826,0.05000495910644531,19.998016554144257,20.1614715775983,101844.5,265.0,-950.0,-9.0,-33.75,45.5,-0.1875,-1.0625,-0.4375,2.9375,78.125,14.5625,90.625,0.64697265625,-0.2945556640625,0.44329833984375,-0.54608154296875,2.0,-6.0,7.0,246.0,-949.0,-10.0,2689,2683.046545297051,50.59391598200287,
75,3.722372055053711,0.05200505256652832,19.228900859598856,20.148442684060985,101844.5,244.0,-965.0,-20.0,-33.375,47.0,-1.375,-4.8125,-1.5,2.3125,78.0,14.4375,90.75,0.6474609375,-0.29571533203125,0.44207763671875,-0.5457763671875,-2.0,-13.0,-3.0,244.0,-949.0,-13.0,2689,2684.2372362376414,47.82409218890579,
76,3.769376754760742,0.04700469970703125,21.274468430449602,20.162484395865075,101844.5,245.0,-969.0,-4.0,-33.375,45.875,-1.375,0.375,-2.75,2.375,77.75,14.3125,90.9375,0.64825439453125,-0.29620361328125,0.4404296875,-0.54595947265625,-1.0,-20.0,13.0,242.0,-950.0,-15.0,2727,2692.7897889901133,61.23678432323706,
77,3.8173816204071045,0.048004865646362305,20.83122172170432,20.170893994032575,101844.5,243.0,-964.0,-5.0,-33.375,46.25,-2.1875,2.3125,-2.0,0.8125,77.5625,14.25,90.875,0.64801025390625,-0.2958984375,0.4398193359375,-0.54693603515625,1.0,-14.0,9.0,241.0,-950.0,-14.0,2717,2697.631831192091,65.19967136043788,
78,3.8663864135742188,0.04900479316711426,20.406167139402843,20.173875980464704,101844.5,232.0,-970.0,-8.0,-33.375,45.875,-0.5625,0.625,-1.1875,-1.125,77.5,14.25,90.8125,0.6480712890625,-0.29534912109375,0.4395751953125,-0.54736328125,-9.0,-19.0,8.0,241.0,-950.0,-14.0,2708,2699.7054649536726,62.91119593686863,
79,3.914391279220581,0.048004865646362305,20.83122172170432,20.181937462248328,101844.5,257.0,-953.0,4.0,-33.0,46.5625,-1.0,0.5,-0.8125,-3.625,77.625,14.375,90.75,0.64825439453125,-0.29412841796875,0.44024658203125,-0.5472412109375,10.0,-2.0,23.0,244.0,-949.0,-13.0,2675,2694.764371962938,46.327175979426954,
80,3.9653964042663574,0.05100512504577637,19.60587292164296,20.174527801036046,101844.5,264.0,-946.0,-12.0,-33.0,46.25,0.1875,-0.8125,-0.5,-1.75,77.75,14.5,90.75,0.6484375,-0.293212890625,0.44110107421875,-0.54681396484375,12.0,4.0,1.0,246.0,-949.0,-12.0,2684,2692.611497570351,37.47356020575155,
81,4.015401601791382,0.050005197525024414,19.9979212060819,20.17232845747326,101849.25,275.0,-946.0,-5.0,-34.0625,45.0625,-0.1875,0.25,-1.125,-2.375,77.75,14.625,90.75,0.6488037109375,-0.29241943359375,0.441162109375,-0.5467529296875,27.0,6.0,5.0,247.0,-948.0,-12.0,2698,2693.6891980562805,35.881381125314135,
82,4.065406560897827,0.05000495910644531,19.998016554144257,20.170184401407237,101849.25,262.0,-941.0,-20.0,-33.375,45.875,-0.5625,-2.3125,-0.375,-1.125,77.875,14.75,90.8125,0.64959716796875,-0.2919921875,0.44140625,-0.54583740234375,12.0,6.0,-1.0,249.0,-948.0,-14.0,2666,2688.151358445025,21.218662190774296,
83,4.1174116134643555,0.05200505256652832,19.228900859598856,20.158295500158776,101849.25,280.0,-947.0,-24.0,-33.375,46.25,-1.375,-1.0625,-2.0625,-0.625,77.9375,14.8125,90.875,0.650390625,-0.29132080078125,0.44122314453125,-0.54534912109375,29.0,0.0,-9.0,251.0,-947.0,-15.0,2703,2691.12108675602,24.807257098903403,
84,4.164416313171387,0.04700469970703125,21.274468430449602,20.170893994032575,101849.25,268.0,-932.0,-16.0,-33.75,45.875,-1.0,-1.5,-2.5,-0.1875,77.875,14.875,91.0,0.65130615234375,-0.29071044921875,0.440673828125,-0.5450439453125,16.0,14.0,0.0,252.0,-947.0,-17.0,2670,2686.896869404816,13.339733520858239,
85,4.212421178817749,0.048004865646362305,20.83122172170432,20.17841910667061,101849.25,287.0,-936.0,-31.0,-33.375,46.5625,-1.0,-1.8125,-3.875,1.125,77.875,14.9375,91.125,0.65240478515625,-0.2899169921875,0.440185546875,-0.54461669921875,26.0,4.0,-5.0,253.0,-947.0,-19.0,2694,2688.317495523853,14.965097935702872,
86,4.260426044464111,0.048004865646362305,20.83122172170432,20.185774639075404,101849.25,253.0,-935.0,-26.0,-33.375,45.875,0.1875,1.25,-5.375,2.9375,77.5,14.8125,91.1875,0.65301513671875,-0.28924560546875,0.4378662109375,-0.546142578125,-6.0,18.0,-3.0,250.0,-947.0,-19.0,2703,2691.2539964190823,19.58567826558354,
87,4.309430837631226,0.04900479316711426,20.406167139402843,20.188280837527373,101849.25,235.0,-952.0,-36.0,-33.0,46.25,-0.5625,2.3125,-4.6875,1.875,77.125,14.6875,91.125,0.65301513671875,-0.2886962890625,0.4365234375,-0.54742431640625,-13.0,-4.0,-17.0,249.0,-948.0,-19.0,2713,2695.603197135266,26.502162112750355,
88,4.356435537338257,0.04700469970703125,21.274468430449602,20.200000492551123,101840.5,259.0,-934.0,-29.0,-33.75,44.5,-0.1875,1.25,-4.5625,-0.3125,76.875,14.6875,91.125,0.653564453125,-0.287353515625,0.43536376953125,-0.54840087890625,2.0,19.0,-2.0,248.0,-948.0,-19.0,2666,2689.6825577082127,11.256100243583521,
89,4.403440237045288,0.04700469970703125,21.274468430449602,20.211469943718157,101840.5,264.0,-929.0,-29.0,-34.0625,46.25,-0.1875,1.9375,-3.75,0.0,76.625,14.6875,91.125,0.65411376953125,-0.28607177734375,0.43438720703125,-0.5491943359375,14.0,18.0,-10.0,249.0,-948.0,-18.0,2694,2690.5460461665702,11.967516013963701,
90,4.45144510269165,0.048004865646362305,20.83122172170432,20.218153413950855,101840.5,237.0,-949.0,-25.0,-32.5625,47.0,-0.1875,2.3125,-3.8125,3.8125,76.4375,14.625,91.0625,0.6541748046875,-0.28546142578125,0.433349609375,-0.55023193359375,-10.0,0.0,-6.0,247.0,-948.0,-18.0,2689,2690.2368369332567,10.12664380281196,
91,4.501450061798096,0.05000495910644531,19.998016554144257,20.215707994248017,101840.5,220.0,-950.0,-29.0,-33.75,46.25,-0.1875,1.875,-1.5625,2.5,76.0625,14.4375,91.0,0.65362548828125,-0.28546142578125,0.43206787109375,-0.5518798828125,-24.0,-1.0,-12.0,244.0,-949.0,-17.0,2647,2681.5894695466054,-8.179040192271103,
92,4.551455020904541,0.05000495910644531,19.998016554144257,20.21331630818055,101840.5,224.0,-969.0,-45.0,-33.75,46.25,-0.1875,-0.625,-1.375,1.4375,75.8125,14.25,91.0625,0.653564453125,-0.28607177734375,0.4307861328125,-0.55267333984375,-31.0,-13.0,-20.0,242.0,-950.0,-17.0,2703,2685.8715756372844,1.2022266757560827,
93,4.600459814071655,0.04900479316711426,20.406167139402843,20.215370584378604,101840.5,229.0,-976.0,-37.0,-33.0,46.5625,-0.1875,-2.8125,-0.8125,-2.4375,75.8125,14.25,91.1875,0.654541015625,-0.28619384765625,0.43017578125,-0.55194091796875,-13.0,-26.0,-17.0,242.0,-950.0,-20.0,2689,2686.497260509828,2.3587870167521094,
94,4.648464679718018,0.048004865646362305,20.83122172170432,20.22173050171528,101840.5,224.0,-989.0,-24.0,-33.0,46.5625,-1.0,-1.875,-0.8125,-3.8125,75.875,14.3125,91.375,0.655517578125,-0.286376953125,0.42974853515625,-0.551025390625,-18.0,-40.0,-1.0,242.0,-949.0,-22.0,2675,2684.1978084078623,-2.66713134237128,
95,4.695469379425049,0.04700469970703125,21.274468430449602,20.23226909247411,101840.5,249.0,-966.0,-27.0,-33.0,46.5625,-0.1875,0.1875,0.6875,-2.4375,76.0,14.4375,91.375,0.65606689453125,-0.28570556640625,0.4302978515625,-0.55023193359375,3.0,-17.0,-4.0,245.0,-949.0,-23.0,2666,2680.5582467262902,-10.143392217662132,
96,4.745474338531494,0.05000495910644531,19.998016554144257,20.22980067988474,101845.75,250.0,-938.0,-40.0,-33.75,46.5625,0.1875,2.5,1.6875,-2.75,76.1875,14.5625,91.3125,0.65582275390625,-0.28515625,0.431396484375,-0.54998779296875,2.0,10.0,-18.0,247.0,-948.0,-22.0,2666,2677.6465973810327,-14.9517741765282,
97,4.792479038238525,0.04700469970703125,21.274468430449602,20.240046795416415,101845.75,242.0,-941.0,-29.0,-33.0,46.5625,-0.1875,2.5625,0.9375,-2.1875,76.25,14.625,91.25,0.65557861328125,-0.2845458984375,0.43212890625,-0.550048828125,-5.0,6.0,-8.0,248.0,-948.0,-21.0,2703,2682.717277904826,-2.6689934864418206,
98,4.840483903884888,0.048004865646362305,20.83122172170432,20.245909695381265,101845.75,254.0,-930.0,-26.0,-32.5625,45.875,0.1875,5.625,0.5,-0.5,76.375,14.75,91.0,0.6549072265625,-0.28326416015625,0.43328857421875,-0.550537109375,8.0,15.0,1.0,250.0,-947.0,-17.0,2684,2682.973822323861,-1.8676807703592877,
99,4.890488862991333,0.05000495910644531,19.998016554144257,20.243375002687426,101845.75,271.0,-950.0,-20.0,-33.75,45.5,-0.1875,8.5625,-1.6875,-2.3125,76.3125,14.8125,90.75,0.653564453125,-0.28216552734375,0.43389892578125,-0.55230712890625,7.0,-5.0,-3.0,251.0,-947.0,-13.0,2670,2680.379057859089,-6.869926965385326,
100,4.939493894577026,0.04900503158569336,20.4060678596102,20.244989088819008,101845.75,251.0,-948.0,-2.0,-33.375,45.5,-0.1875,11.75,-3.625,1.875,76.0625,14.8125,90.3125,0.6519775390625,-0.27923583984375,0.43450927734375,-0.55511474609375,0.0,0.0,3.0,251.0,-947.0,-5.0,2675,2679.303246287271,-8.378242662713316,
101,4.988498687744141,0.04900479316711426,20.406167139402843,20.246572430326413,101845.75,266.0,-936.0,-5.0,-33.0,46.25,-0.5625,5.9375,-1.875,2.0625,75.75,14.75,90.0,0.65032958984375,-0.27783203125,0.434326171875,-0.55792236328125,16.0,8.0,2.0,249.0,-948.0,0.0,2703,2684.042597029817,2.130779942022409,
102,5.037503480911255,0.04900479316711426,20.406167139402843,20.24812496636703,101845.75,238.0,-958.0,13.0,-33.75,46.5625,-1.375,4.5,-0.75,5.0625,75.4375,14.5625,89.6875,0.6488037109375,-0.27740478515625,0.4337158203125,-0.56036376953125,-19.0,-5.0,12.0,247.0,-949.0,4.0,2675,2682.234077623854,-1.7727929794735398,
103,5.088508605957031,0.05100512504577637,19.60587292164296,20.241687295059233,101845.75,239.0,-949.0,18.0,-33.375,45.5,-1.375,1.875,0.875,0.6875,75.3125,14.4375,89.5625,0.6478271484375,-0.27752685546875,0.43359375,-0.5615234375,-4.0,3.0,17.0,245.0,-949.0,6.0,2684,2682.5872620990835,-0.9030646876011558,
104,5.1365134716033936,0.048004865646362305,20.83122172170432,20.247196970270142,101841.5,255.0,-947.0,9.0,-33.375,45.5,-1.375,0.5,1.25,-0.4375,75.375,14.4375,89.5,0.6474609375,-0.27764892578125,0.43402099609375,-0.56158447265625,13.0,5.0,4.0,245.0,-949.0,7.0,2680,2682.069809679267,-1.8906748276039016,
105,5.184518337249756,0.048004865646362305,20.83122172170432,20.252604614317868,101841.5,251.0,-949.0,23.0,-33.75,45.875,-1.375,0.4375,0.75,0.75,75.375,14.4375,89.5,0.64715576171875,-0.27813720703125,0.43414306640625,-0.56158447265625,9.0,0.0,22.0,244.0,-949.0,7.0,2666,2678.8558477434135,-8.396682713931959,
106,5.230522871017456,0.046004533767700195,21.736988033603343,20.26566035823118,101841.5,255.0,-958.0,15.0,-33.75,45.875,-1.375,-1.375,1.4375,3.4375,75.375,14.3125,89.5,0.64678955078125,-0.27886962890625,0.43402099609375,-0.56170654296875,12.0,-8.0,7.0,242.0,-950.0,7.0,2675,2678.0846781947307,-9.233304767698478,
107,5.278527736663818,0.048004865646362305,20.83122172170432,20.270803780530493,101841.5,218.0,-967.0,1.0,-33.75,46.5625,-2.1875,-0.3125,2.5,0.0,75.3125,14.1875,89.5,0.646240234375,-0.280029296875,0.433837890625,-0.5618896484375,-5.0,-13.0,-3.0,241.0,-950.0,7.0,2670,2676.4677425557848,-11.678248771389526,
108,5.3225321769714355,0.04400444030761719,22.724979411382254,20.29109386454717,101841.5,279.0,-962.0,-10.0,-32.25,46.25,-1.375,-1.625,2.5,-0.1875,75.5625,14.25,89.5,0.64605712890625,-0.28057861328125,0.43487548828125,-0.56103515625,20.0,-13.0,-16.0,242.0,-950.0,7.0,2703,2681.7741940446276,1.5484761888947158,
109,5.375537395477295,0.053005218505859375,18.86606693055056,20.277042457505193,101841.5,254.0,-953.0,14.0,-32.5625,45.875,-2.1875,-3.875,0.5,-0.9375,75.625,14.3125,89.625,0.6466064453125,-0.2811279296875,0.4349365234375,-0.56005859375,11.0,0.0,17.0,242.0,-950.0,5.0,2689,2683.2193552357026,4.120079345630625,
110,5.423542261123657,0.048004865646362305,20.83122172170432,20.281947609865224,101841.5,241.0,-944.0,5.0,-33.375,46.25,-1.0,-4.125,3.25,-2.3125,75.875,14.375,89.8125,0.6473388671875,-0.281982421875,0.4354248046875,-0.5584716796875,0.0,10.0,9.0,243.0,-949.0,2.0,2689,2684.3754841885625,6.116429266658297,
111,5.4705469608306885,0.04700469970703125,21.274468430449602,20.29047566811216,101841.5,243.0,-934.0,-9.0,-33.0,46.25,-1.0,-1.8125,2.5625,2.25,76.0,14.375,89.875,0.64739990234375,-0.28314208984375,0.4359130859375,-0.557373046875,-19.0,4.0,-16.0,243.0,-949.0,1.0,2675,2682.50038735085,1.5156174921972303,
112,5.51755166053772,0.04700469970703125,21.274468430449602,20.298858423209563,101850.5,235.0,-951.0,-7.0,-33.375,45.875,-1.75,1.625,1.0625,0.1875,76.0,14.3125,89.875,0.64697265625,-0.2835693359375,0.43609619140625,-0.55755615234375,3.0,-4.0,-4.0,243.0,-950.0,1.0,2684,2682.8003098806803,2.0021249822232132,
113,5.565556526184082,0.048004865646362305,20.83122172170432,20.30345024228445,101850.5,232.0,-958.0,-9.0,-33.375,46.5625,-0.1875,0.375,0.125,1.6875,76.0,14.3125,89.8125,0.646728515625,-0.283935546875,0.43603515625,-0.55767822265625,-9.0,-14.0,0.0,242.0,-950.0,2.0,2684,2683.0402479045447,2.301732701459576,
114,5.615561485290527,0.05000495910644531,19.998016554144257,20.300730443182402,101850.5,245.0,-976.0,0.0,-33.0,46.25,-0.5625,0.5625,0.1875,1.1875,75.9375,14.25,89.8125,0.64654541015625,-0.2843017578125,0.43572998046875,-0.5579833984375,-11.0,-30.0,-4.0,241.0,-950.0,2.0,2708,2688.032198323636,12.054470143158845,
115,5.6635661125183105,0.0480046272277832,20.831325181528314,20.305227786749562,101850.5,228.0,-993.0,7.0,-32.5625,45.5,-1.75,0.75,-0.5,0.5,75.8125,14.125,89.8125,0.64617919921875,-0.2845458984375,0.435302734375,-0.55853271484375,-11.0,-43.0,6.0,240.0,-950.0,2.0,2666,2683.625758658909,1.6698253739720936,
116,5.710571050643921,0.04700493812561035,21.274360522031113,20.31320492666314,101850.5,235.0,-980.0,1.0,-33.375,46.25,-2.1875,0.6875,-0.375,-1.5625,75.875,14.1875,89.75,0.64617919921875,-0.28424072265625,0.43560791015625,-0.55853271484375,6.0,-30.0,1.0,240.0,-950.0,3.0,2680,2682.9006069271272,-0.03987110093525281,
117,5.761575937271118,0.051004886627197266,19.605964567849295,20.30694401563598,101850.5,253.0,-981.0,0.0,-33.0,47.0,-1.375,-0.375,0.375,-0.0625,75.875,14.1875,89.75,0.64605712890625,-0.28411865234375,0.435791015625,-0.55853271484375,-4.0,-24.0,5.0,240.0,-950.0,3.0,2694,2685.1204855417022,4.316402155386673,
118,5.8115808963775635,0.05000495910644531,19.998016554144257,20.304285891219546,101850.5,232.0,-956.0,2.0,-33.375,46.25,-2.1875,-0.25,2.125,-3.125,76.0625,14.3125,89.75,0.64593505859375,-0.2840576171875,0.43682861328125,-0.55792236328125,-2.0,-2.0,1.0,242.0,-950.0,4.0,2675,2683.096388433362,-0.16303080813059045,
119,5.859585762023926,0.048004865646362305,20.83122172170432,20.30860283183173,101850.5,255.0,-958.0,-2.0,-33.0,47.0,-1.375,1.3125,1.625,-0.375,76.25,14.375,89.6875,0.64569091796875,-0.28399658203125,0.43768310546875,-0.55755615234375,11.0,-8.0,-6.0,243.0,-949.0,4.0,2666,2679.6771107466893,-7.269500889232762,
120,5.90859055519104,0.04900479316711426,20.406167139402843,20.309412012746936,101850.75,232.0,-952.0,0.0,-33.375,46.5625,-2.1875,1.4375,1.5625,-0.8125,76.25,14.375,89.625,0.6451416015625,-0.28399658203125,0.43817138671875,-0.5577392578125,-17.0,-2.0,-6.0,243.0,-949.0,6.0,2684,2680.541688597352,-4.778278787745022,
121,5.954595327377319,0.0460047721862793,21.736875382207526,20.320440491343014,101850.75,243.0,-960.0,5.0,-33.375,47.0,-2.5625,0.375,0.6875,0.0,76.375,14.4375,89.5625,0.64508056640625,-0.28387451171875,0.4388427734375,-0.557373046875,-1.0,-10.0,-1.0,244.0,-949.0,6.0,,2680.541688597352,-4.778278787745022,
122,5.9975996017456055,0.04300427436828613,23.25350246433779,20.341471272022197,101850.75,203.0,-957.0,13.0,-33.375,45.875,-2.1875,1.25,0.0,-1.6875,76.375,14.4375,89.5625,0.6448974609375,-0.283935546875,0.43896484375,-0.55743408203125,-39.0,-12.0,8.0,244.0,-949.0,6.0,2666,2677.6333508778816,-11.063354741653164,
123,6.046604633331299,0.04900503158569336,20.4060678596102,20.34199479853121,101850.75,254.0,-928.0,25.0,-33.75,45.875,-1.0,-0.0625,1.25,-7.75,76.75,14.75,89.5,0.64532470703125,-0.2821044921875,0.44085693359375,-0.556396484375,4.0,20.0,17.0,248.0,-948.0,7.0,2684,2678.9066807023055,-7.358653787001977,
124,6.096609592437744,0.05000495910644531,19.998016554144257,20.33917345696697,101850.75,299.0,-877.0,-3.0,-33.75,45.875,-1.375,-1.3125,1.625,-6.3125,77.1875,15.0625,89.5,0.64605712890625,-0.28070068359375,0.44293212890625,-0.5546875,43.0,68.0,-10.0,255.0,-946.0,7.0,2722,2687.5253445618446,10.612829845464962,
125,6.145614385604858,0.04900479316711426,20.406167139402843,20.339707660928575,101850.75,312.0,-861.0,12.0,-33.375,45.0625,-1.375,-0.25,0.8125,0.625,77.375,15.25,89.5,0.64642333984375,-0.280029296875,0.44378662109375,-0.5538330078125,63.0,80.0,4.0,258.0,-945.0,7.0,2680,2686.020275649476,6.480278082707088,
126,6.193619251251221,0.048004865646362305,20.83122172170432,20.343517237444935,101850.75,269.0,-873.0,20.0,-34.5,45.5,-2.1875,-2.0625,-0.3125,5.6875,77.5,15.3125,89.5625,0.6468505859375,-0.27978515625,0.44415283203125,-0.55322265625,22.0,67.0,11.0,259.0,-945.0,6.0,2670,2682.816220519581,-0.8421880075045101,
127,6.241624116897583,0.048004865646362305,20.83122172170432,20.347268214402778,101850.75,279.0,-850.0,15.0,-34.0625,46.5625,-1.375,-4.125,-1.8125,8.0625,77.1875,15.0,89.75,0.64697265625,-0.2821044921875,0.4420166015625,-0.5535888671875,24.0,96.0,11.0,254.0,-947.0,3.0,2694,2685.052976415665,3.9014665941116835,
128,6.291629076004028,0.05000495910644531,19.998016554144257,20.344492412654436,101841.75,94.0,-453.0,-225.0,-34.5,47.0,-1.375,-7.0,-2.4375,2.9375,76.75,14.625,90.125,0.64801025390625,-0.28533935546875,0.43865966796875,-0.55340576171875,-153.0,495.0,-223.0,247.0,-948.0,-2.0,2652,2678.4423811325323,-9.708559455782906,
129,6.33863377571106,0.04700469970703125,21.274468430449602,20.351388732113485,101841.75,17.0,-25.0,-26.0,-34.0625,46.25,-0.1875,-24.9375,-20.4375,-23.8125,77.125,15.5625,91.3125,0.6583251953125,-0.2791748046875,0.43597412109375,-0.54644775390625,-246.0,918.0,-3.0,263.0,-944.0,-22.0,2614,2665.553904906026,-36.15725156994504,
130,6.387638568878174,0.04900479316711426,20.406167139402843,20.351808982021222,101841.75,7.0,-27.0,-18.0,-34.0625,45.5,0.5625,-24.9375,-20.625,-24.0,77.625,16.6875,92.8125,0.67059326171875,-0.27227783203125,0.4327392578125,-0.53753662109375,-274.0,910.0,27.0,282.0,-938.0,-46.0,2558,2644.043123924821,-76.43678561310675,
131,6.436643600463867,0.04900503158569336,20.4060678596102,20.352222078997706,101841.75,9.0,-28.0,-19.0,-34.875,44.75,1.375,-25.375,-20.5625,-24.3125,78.1875,17.8125,94.375,0.6827392578125,-0.265380859375,0.429443359375,-0.5281982421875,-290.0,902.0,51.0,300.0,-930.0,-71.0,2493,2613.8344991398567,-130.43703178254447,
132,6.4856483936309814,0.04900479316711426,20.406167139402843,20.352629681502048,101841.75,10.0,-29.0,-17.0,-36.25,45.875,1.75,-25.75,-20.1875,-24.6875,78.75,18.875,96.0,0.69476318359375,-0.25830078125,0.42608642578125,-0.51861572265625,-307.0,892.0,79.0,317.0,-922.0,-96.0,2408,2572.667599311885,-201.39919245435414,
133,6.534653186798096,0.04900479316711426,20.406167139402843,20.353031170605774,101841.75,12.0,-36.0,-20.0,-36.25,45.875,1.75,-25.5625,-20.5,-24.875,79.375,19.9375,97.625,0.7066650390625,-0.2510986328125,0.42266845703125,-0.50885009765625,-322.0,876.0,102.0,335.0,-913.0,-122.0,2314,2520.9340794495083,-286.8275585110466,
134,6.581658124923706,0.04700493812561035,21.274360522031113,20.359611127865033,101841.75,16.0,-45.0,-23.0,-37.0625,45.75,3.75,-25.875,-20.5625,-25.25,80.0625,21.0,99.3125,0.71612548828125,-0.2452392578125,0.41986083984375,-0.5142822265625,-333.0,862.0,120.0,348.0,-905.0,-143.0,2188,2454.3472635596067,-399.80399538552956,
135,6.63066291809082,0.04900479316711426,20.406167139402843,20.35995520623914,101811.5,16.0,-50.0,-28.0,-37.0625,45.75,3.75,-26.375,-20.6875,-26.0,80.625,21.875,100.6875,0.7279052734375,-0.23773193359375,0.416259765625,-0.490234375,-349.0,843.0,140.0,365.0,-894.0,-169.0,2010,2365.4778108476858,-541.1720864096483,
136,6.678667783737183,0.048004865646362305,20.83122172170432,20.36334257127826,101811.5,22.0,-60.0,-32.0,-38.75,45.75,3.6875,-26.9375,-21.0,-26.75,81.4375,22.9375,102.5,0.73968505859375,-0.22998046875,0.41259765625,-0.4793701171875,-359.0,821.0,163.0,382.0,-881.0,-196.0,1818,2255.9822486781486,-715.1475110783123,
137,6.727672576904297,0.04900479316711426,20.406167139402843,20.3636545081449,101811.5,23.0,-66.0,-32.0,-39.5625,46.75,5.6875,-28.25,-20.6875,-27.8125,82.25,24.0,104.4375,0.75146484375,-0.221923828125,0.40887451171875,-0.4678955078125,-375.0,800.0,190.0,398.0,-867.0,-223.0,1654,2135.585798942519,-889.3157676000783,
138,6.782678127288818,0.055005550384521484,18.179983529105805,20.345945570494226,101811.5,26.0,-77.0,-38.0,-40.5625,46.0625,6.5,-29.3125,-20.8125,-29.0,83.25,25.0625,106.4375,0.7633056640625,-0.21368408203125,0.40509033203125,-0.45562744140625,-393.0,769.0,221.0,418.0,-848.0,-257.0,1368,1982.0686391540153,-1079.4781344790806,
139,6.831683158874512,0.04900503158569336,20.4060678596102,20.346376839715678,101811.5,25.0,-89.0,-44.0,-42.375,46.25,7.1875,-30.9375,-20.3125,-30.4375,84.375,26.125,108.5625,0.77520751953125,-0.2052001953125,0.4013671875,-0.44256591796875,-406.0,744.0,236.0,435.0,-830.0,-286.0,1130,1811.6549113232122,-1319.2777304636236,
140,6.878687858581543,0.04700469970703125,21.274468430449602,20.35271884380424,101811.5,20.0,-95.0,-60.0,-45.1875,45.5625,9.5,-32.3125,-20.5625,-31.4375,85.625,27.1875,110.8125,0.78717041015625,-0.19647216796875,0.39752197265625,-0.42864990234375,-426.0,715.0,250.0,448.0,-815.0,-310.0,915,1632.3239290585698,-1568.8670894963266,
141,6.92969274520874,0.051004886627197266,19.605964567849295,20.347222479306723,101811.5,27.0,-105.0,-67.0,-47.5,46.0,12.6875,-34.5,-20.4375,-32.8125,87.125,28.25,113.25,0.7991943359375,-0.18756103515625,0.39361572265625,-0.41375732421875,-437.0,687.0,273.0,464.0,-793.0,-340.0,663,1438.4591432468558,-1792.0709927045098,
142,6.9796977043151855,0.05000495910644531,19.998016554144257,20.344720647745067,101811.5,40.0,-111.0,-70.0,-53.25,42.6875,13.6875,-36.6875,-20.1875,-34.4375,88.8125,29.3125,115.8125,0.811279296875,-0.17852783203125,0.38970947265625,-0.39752197265625,-440.0,657.0,302.0,480.0,-769.0,-372.0,415,1233.7673145974848,-2022.2069512168769,
143,7.030702829360962,0.05100512504577637,19.60587292164296,20.33936058324309,101824.25,3031.0,-3926.0,-3905.0,-51.0,31.5625,6.375,126.9375,-56.1875,174.1875,87.0625,28.5,116.6875,0.81610107421875,-0.1771240234375,0.37890625,-0.39874267578125,2563.0,-3156.0,-3518.0,467.0,-769.0,-387.0,372,1061.4138516779879,-2157.900265255665,
144,7.078707695007324,0.048004865646362305,20.83122172170432,20.342696181898354,101824.25,-155.0,-4.0,-496.0,-51.6875,49.6875,7.6875,-40.625,-23.0,-152.0,93.0625,37.25,113.3125,0.8050537109375,-0.09698486328125,0.42474365234375,-0.402587890625,-749.0,712.0,-187.0,594.0,-716.0,-308.0,457,940.5310813423903,-2193.923817849568,
145,7.1267125606536865,0.048004865646362305,20.83122172170432,20.345986843995867,101824.25,50.0,60.0,-30.0,-73.6875,59.375,7.5,-41.1875,-19.625,-153.0625,101.4375,43.5,118.8125,0.820068359375,-0.04888916015625,0.44140625,-0.36090087890625,-624.0,627.0,339.0,675.0,-622.0,-343.0,527,857.8248650739123,-2146.8185889498004,
146,7.17471718788147,0.0480046272277832,20.831325181528314,20.34923414773795,101824.25,55.0,16.0,-30.0,-58.375,44.875,9.0,-41.25,-19.4375,-153.6875,110.25,49.25,125.8125,0.831298828125,-0.0003662109375,0.45611572265625,-0.317626953125,-689.0,532.0,348.0,743.0,-518.0,-374.0,607,807.6598920591299,-2036.6370166141728,
147,7.222722053527832,0.048004865646362305,20.83122172170432,20.352437614320216,101824.25,50.0,16.0,-37.0,-55.0,26.875,9.75,-41.0,-19.5,-153.625,119.5625,54.3125,134.875,0.83868408203125,0.04827880859375,0.46881103515625,-0.27288818359375,-746.0,418.0,371.0,797.0,-404.0,-403.0,597,765.527913647304,-1920.7393733398362,
148,7.270726919174194,0.048004865646362305,20.83122172170432,20.35559877922217,101824.25,51.0,12.0,-39.0,-53.875,14.25,11.875,-41.0625,-19.4375,-153.9375,127.3125,57.625,143.9375,0.84185791015625,0.087158203125,0.4774169921875,-0.2362060546875,-781.0,319.0,391.0,828.0,-308.0,-424.0,,765.527913647304,-1920.7393733398362,
149,7.311730861663818,0.04100394248962402,24.387898803951554,20.37821178309815,101824.25,51.0,11.0,-40.0,-55.1875,1.5625,12.75,-40.9375,-19.625,-154.1875,135.375,60.0,154.6875,0.842529296875,0.1258544921875,0.48455810546875,-0.19879150390625,-797.0,220.0,401.0,849.0,-208.0,-442.0,775,767.4223309178432,-1724.045350337216,
150,7.365736484527588,0.05400562286376953,18.51659043952745,20.364562364549545,101824.25,51.0,12.0,-39.0,-54.5,-8.75,14.875,-40.9375,-19.75,-154.1875,147.875,61.4375,173.125,0.8388671875,0.18310546875,0.49261474609375,-0.1416015625,-807.0,66.0,429.0,861.0,-56.0,-465.0,738,761.5378647342745,-1562.5368403311334,
151,7.415741443634033,0.05000495910644531,19.998016554144257,20.36209071577386,101407.5,53.0,13.0,-37.0,-55.25,-16.875,14.5625,-40.75,-20.375,-154.4375,158.75,60.3125,-171.4375,0.8316650390625,0.23004150390625,0.49676513671875,-0.0931396484375,-797.0,-56.0,445.0,852.0,72.0,-479.0,902,789.6302917874197,-1350.1038741725315,
152,7.4637463092803955,0.048004865646362305,20.83122172170432,20.365108043798827,101407.5,57.0,15.0,-41.0,-51.875,-24.0625,15.5,-40.75,-20.3125,-154.625,167.625,58.125,-160.375,0.8231201171875,0.266845703125,0.4984130859375,-0.05401611328125,-775.0,-157.0,446.0,832.0,173.0,-487.0,,789.6302917874197,-1350.1038741725315,
153,7.506750583648682,0.04300427436828613,23.25350246433779,20.38165492447117,101407.5,57.0,18.0,-33.0,-45.375,-29.1875,13.1875,-40.6875,-20.3125,-154.8125,176.625,54.9375,-151.0,0.8089599609375,0.31182861328125,0.498291015625,-0.00482177734375,-738.0,-276.0,452.0,793.0,297.0,-493.0,691,769.9042334299359,-1260.9634814180206,
154,7.555755615234375,0.04900503158569336,20.4060678596102,20.38181326160097,101407.5,56.0,22.0,-31.0,-37.6875,-31.75,10.5,-41.0,-20.125,-154.75,187.9375,49.9375,-141.625,0.79107666015625,0.35540771484375,0.495849609375,0.04437255859375,-685.0,-391.0,453.0,738.0,414.0,-494.0,640,743.9233867439488,-1187.8838253286567,
155,7.60576057434082,0.05000495910644531,19.998016554144257,20.37928994542845,101407.5,54.0,24.0,-41.0,-32.375,-32.0625,9.25,-41.3125,-20.375,-154.9375,199.25,44.1875,-134.3125,0.76953125,0.39727783203125,0.49114990234375,0.0933837890625,-615.0,-495.0,443.0,668.0,523.0,-490.0,569,708.9387093951591,-1139.0578584720402,
156,7.656765460968018,0.051004886627197266,19.605964567849295,20.374138504730624,101407.5,53.0,30.0,-37.0,-31.6875,-30.6875,8.0625,-40.875,-20.125,-154.6875,210.4375,37.875,-128.6875,0.74444580078125,0.4373779296875,0.48419189453125,0.14190673828125,-532.0,-592.0,435.0,585.0,622.0,-481.0,527,672.5509675161272,-1096.4937504232705,
157,7.706770420074463,0.05000495910644531,19.998016554144257,20.37169805798926,101407.5,53.0,46.0,-54.0,-36.375,-34.5625,10.6875,-40.9375,-20.25,-154.3125,221.375,31.3125,-124.1875,0.72186279296875,0.4678955078125,0.47698974609375,0.18023681640625,-453.0,-648.0,429.0,509.0,692.0,-470.0,368,611.6407740129018,-1108.6526811803067,
158,7.756775379180908,0.05000495910644531,19.998016554144257,20.36928907649822,101437.0,4034.0,3918.0,-3950.0,-40.75,-54.1875,16.875,166.375,-180.5625,1.5,231.0625,24.9375,-123.5,0.70733642578125,0.5,0.45074462890625,0.215576171875,3620.0,3177.0,-3459.0,413.0,741.0,-491.0,400,569.3126192103215,-1082.4353271071143,
159,7.8037800788879395,0.04700469970703125,21.274468430449602,20.374741265473737,101437.0,-122.0,133.0,172.0,-28.5625,-77.375,20.25,-16.125,-34.1875,-3.375,236.125,23.1875,-120.875,0.69964599609375,0.49652099609375,0.45330810546875,0.2418212890625,-508.0,-640.0,635.0,386.0,773.0,-462.0,354,526.2500953682572,-1065.8050247977508,
160,7.850784778594971,0.04700469970703125,21.274468430449602,20.38012816708939,101437.0,40.0,-3.0,-8.0,-32.5625,-65.5625,14.6875,-16.0,-34.625,-3.0,239.375,22.1875,-120.6875,0.70391845703125,0.49078369140625,0.44598388671875,0.25439453125,-329.0,-783.0,454.0,370.0,780.0,-463.0,452,511.4000762946058,-990.8171485153729,
161,7.901789903640747,0.05100512504577637,19.60587292164296,20.375130440486565,101437.0,43.0,5.0,-26.0,-30.5,-50.75,14.5625,-16.0,-35.1875,-2.8125,242.625,21.1875,-120.4375,0.70806884765625,0.48480224609375,0.43853759765625,0.26690673828125,-311.0,-782.0,437.0,355.0,787.0,-463.0,508,510.7200610356847,-893.0686629389542,
162,7.951794862747192,0.05000495910644531,19.998016554144257,20.372758955206763,101437.0,43.0,9.0,-25.0,-27.5625,-42.0,8.375,-15.5625,-35.25,-2.8125,245.875,20.25,-120.1875,0.71209716796875,0.478759765625,0.43096923828125,0.27923583984375,-296.0,-785.0,437.0,339.0,794.0,-463.0,621,532.7760488285478,-759.6541957450908,
163,7.998799562454224,0.04700469970703125,21.274468430449602,20.378057823215123,101437.0,45.0,8.0,-22.0,-24.1875,-37.25,7.375,-15.6875,-34.6875,-2.6875,249.0625,19.25,-119.9375,0.7159423828125,0.4725341796875,0.42327880859375,0.29150390625,-279.0,-793.0,439.0,324.0,801.0,-462.0,508,527.8208390628382,-694.2307215432661,
164,8.048804521560669,0.05000495910644531,19.998016554144257,20.37569673368093,101437.0,43.0,9.0,-27.0,-24.25,-37.0,5.1875,-15.75,-34.5625,-2.5625,252.25,18.3125,-119.6875,0.7196044921875,0.4661865234375,0.41558837890625,0.3035888671875,-265.0,-798.0,433.0,308.0,808.0,-461.0,560,534.2566712502705,-611.9372615265429,
165,8.097809791564941,0.04900527000427246,20.405968580783583,20.37587992890025,101437.0,44.0,9.0,-26.0,-25.5,-37.1875,6.25,-15.625,-34.375,-2.4375,255.4375,17.375,-119.375,0.72314453125,0.45965576171875,0.40771484375,0.31561279296875,-248.0,-805.0,432.0,293.0,815.0,-459.0,588,545.0053370002164,-528.8098418160147,
166,8.146814584732056,0.04900479316711426,20.406167139402843,20.37606211280426,101438.75,42.0,10.0,-30.0,-28.1875,-43.6875,10.1875,-15.375,-34.75,-2.0625,258.625,16.5,-119.0625,0.72650146484375,0.45294189453125,0.39971923828125,0.32745361328125,-235.0,-810.0,426.0,278.0,821.0,-456.0,551,546.2042696001731,-473.4822957320537,
167,8.195819616317749,0.04900503158569336,20.4060678596102,20.376241525314395,101438.75,43.0,17.0,-31.0,-31.5625,-56.875,12.75,-15.75,-34.3125,-2.0,261.75,15.5625,-118.6875,0.729736328125,0.44610595703125,0.39178466796875,0.339111328125,-220.0,-810.0,422.0,264.0,828.0,-454.0,574,551.7634156801385,-414.7900349439225,
168,8.244824409484863,0.04900479316711426,20.406167139402843,20.376419394296917,101438.75,964.0,595.0,-1056.0,-30.1875,-74.25,11.875,-61.0625,17.8125,-37.1875,264.75,14.5,-119.625,0.73681640625,0.44317626953125,0.377197265625,0.34417724609375,718.0,-229.0,-587.0,245.0,825.0,-469.0,607,562.8107325441108,-350.76769201271384,
169,8.294829368591309,0.05000495910644531,19.998016554144257,20.374138211923324,101438.75,17.0,45.0,0.0,-29.5625,-80.0,14.375,22.5,-11.5,9.625,264.75,14.5625,-120.75,0.7430419921875,0.4423828125,0.3709716796875,0.33856201171875,-228.0,-769.0,485.0,246.0,815.0,-485.0,611,572.4485860352887,-296.4171274451432,
170,8.344834327697754,0.05000495910644531,19.998016554144257,20.371884368721926,101438.75,45.0,9.0,-25.0,-32.0,-67.0625,15.0,23.125,-11.4375,9.8125,264.625,14.6875,-122.0625,0.74981689453125,0.441162109375,0.36456298828125,0.33203125,-203.0,-793.0,478.0,248.0,803.0,-503.0,681,594.158868828231,-223.35915523178755,
171,8.397839546203613,0.053005218505859375,18.86606693055056,20.36237999775829,101438.75,41.0,9.0,-27.0,-33.0625,-59.1875,15.1875,23.25,-11.6875,10.0,264.5,14.75,-123.375,0.75665283203125,0.43994140625,0.35797119140625,0.3253173828125,-209.0,-784.0,496.0,250.0,791.0,-521.0,756,626.5270950625849,-139.95712745255653,
172,8.445844411849976,0.048004865646362305,20.83122172170432,20.365044821175573,101438.75,41.0,8.0,-28.0,-33.0625,-59.1875,15.1875,22.9375,-11.375,10.0625,264.375,14.875,-124.375,0.76202392578125,0.4388427734375,0.35272216796875,0.31988525390625,-209.0,-771.0,508.0,251.0,781.0,-535.0,,626.5270950625849,-139.95712745255653,
173,8.489848852157593,0.04400444030761719,22.724979411382254,20.377276794042587,101438.75,39.0,10.0,-27.0,-34.5625,-55.875,17.5,23.25,-11.125,10.1875,264.25,14.9375,-125.4375,0.7686767578125,0.4375,0.34613037109375,0.31298828125,-210.0,-758.0,526.0,253.0,768.0,-553.0,630,627.2216760500679,-124.3829808432919,
174,8.538853645324707,0.04900479316711426,20.406167139402843,20.377442596790555,101438.5,42.0,11.0,-31.0,-35.6875,-57.375,18.75,22.75,-11.25,10.3125,264.0625,15.0,-126.75,0.77392578125,0.436279296875,0.3408203125,0.30743408203125,-209.0,-742.0,540.0,254.0,755.0,-570.0,640,629.7773408400544,-106.72955047328756,
175,8.5878586769104,0.04900503158569336,20.4060678596102,20.37760594157316,101438.5,3553.0,3617.0,-3604.0,-35.25,-64.375,20.6875,96.5625,-76.4375,15.625,264.4375,14.6875,-129.3125,0.78558349609375,0.43536376953125,0.32562255859375,0.29541015625,3304.0,2883.0,-3002.0,249.0,734.0,-600.0,681,640.0218726720436,-75.15153425060794,
176,8.634863376617432,0.04700469970703125,21.274468430449602,20.38248809779607,101438.5,4.0,90.0,13.0,-37.875,-76.25,24.1875,59.8125,-33.0625,34.125,264.375,14.875,-131.9375,0.8001708984375,0.4273681640625,0.31170654296875,0.28265380859375,-248.0,-614.0,646.0,252.0,704.0,-633.0,654,642.8174981376349,-61.688836254438996,
177,8.681868076324463,0.04700469970703125,21.274468430449602,20.38731738883256,101438.5,40.0,11.0,-47.0,-38.6875,-73.6875,26.75,60.1875,-33.5,33.9375,263.875,14.9375,-135.4375,0.81744384765625,0.41961669921875,0.29345703125,0.2637939453125,-208.0,-653.0,641.0,253.0,664.0,-675.0,709,656.0539985101079,-27.360001698613818,
178,8.727872610092163,0.046004533767700195,21.736988033603343,20.394431490003196,101438.5,43.0,11.0,-38.0,-39.375,-62.875,29.75,60.125,-32.875,34.125,127.4375,14.875,-138.9375,0.8338623046875,0.41143798828125,0.27496337890625,0.24456787109375,-204.0,-611.0,679.0,252.0,621.0,-715.0,780,680.8431988080864,29.260253495223033,
179,8.77887773513794,0.05100512504577637,19.60587292164296,20.38984997860748,101438.5,43.0,9.0,-36.0,-40.1875,-58.5,33.25,60.3125,-32.875,34.0625,129.25,14.6875,-142.5,0.84942626953125,0.40277099609375,0.25616455078125,0.2249755859375,-203.0,-567.0,717.0,249.0,577.0,-752.0,813,707.2745590464692,78.15521714369072,
180,8.826882600784302,0.048004865646362305,20.83122172170432,20.39225037206299,101438.5,2857.0,3918.0,-3950.0,-42.0,-57.375,38.375,48.5625,-44.75,18.3125,130.875,14.125,-146.0,0.8638916015625,0.39483642578125,0.23553466796875,0.2056884765625,3151.0,2404.0,-3147.0,239.0,530.0,-788.0,831,732.0196472371755,121.8867372916946,
181,8.875887393951416,0.04900479316711426,20.406167139402843,20.392327208132983,101438.5,-56.0,110.0,-42.0,-45.0,-60.375,45.5,51.625,1.25,35.375,132.25,14.9375,-148.3125,0.87310791015625,0.38592529296875,0.23126220703125,0.1878662109375,-197.0,-500.0,776.0,253.0,496.0,-806.0,864,758.4157177897405,163.56232631443623,
182,8.92489242553711,0.04900503158569336,20.4060678596102,20.39240265565969,101438.5,47.0,0.0,-40.0,-46.0625,-58.6875,48.375,52.125,0.875,35.375,133.625,15.875,-151.25,0.882568359375,0.3779296875,0.2257080078125,0.16497802734375,-228.0,-444.0,789.0,268.0,452.0,-827.0,883,783.3325742317925,198.05160002346048,
183,8.972897052764893,0.0480046272277832,20.831325181528314,20.394750872975937,101438.5,42.0,6.0,-43.0,-47.1875,-51.0,48.5,52.375,0.9375,35.375,134.6875,16.5,-153.625,0.8897705078125,0.371337890625,0.22113037109375,0.1466064453125,-236.0,-410.0,798.0,279.0,416.0,-842.0,808,788.266059385434,188.5235433724893,
184,9.018901824951172,0.0460047721862793,21.736875382207526,20.401596953961317,101438.5,2324.0,3918.0,-3950.0,-50.0625,-47.5625,52.0,58.1875,-8.5,31.3125,135.8125,16.9375,-156.25,0.89752197265625,0.3638916015625,0.21405029296875,0.12750244140625,3063.0,1592.0,-3088.0,285.0,377.0,-858.0,813,793.2128475083473,180.42396073223543,
185,9.067906618118286,0.04900479316711426,20.406167139402843,20.40162165216364,101438.5,-16.0,68.0,-49.0,-53.75,-48.75,57.875,-2.8125,19.875,16.75,136.5,18.1875,-156.0625,0.8978271484375,0.35784912109375,0.22381591796875,0.1253662109375,-248.0,-393.0,815.0,306.0,377.0,-851.0,831,800.7702780066779,177.80338364834745,
186,9.114911317825317,0.04700469970703125,21.274468430449602,20.406122837010425,101438.5,46.0,-1.0,-45.0,-53.6875,-45.6875,55.0,-2.625,20.125,17.125,137.125,19.375,-156.0,0.8983154296875,0.3521728515625,0.23272705078125,0.12176513671875,-284.0,-371.0,803.0,325.0,375.0,-845.0,836,807.8162224053424,175.01291745072174,
187,9.164916276931763,0.05000495910644531,19.998016554144257,20.403896156769257,101438.5,3221.0,3022.0,-3950.0,-55.1875,-44.6875,54.0625,-1.3125,18.375,16.9375,137.625,20.125,-156.1875,0.8990478515625,0.34814453125,0.23748779296875,0.1185302734375,2883.0,2651.0,-3107.0,337.0,371.0,-842.0,,807.8162224053424,175.01291745072174,
188,9.2089204788208,0.044004201889038086,22.72510253728998,20.41498788401671,101438.5,40.0,13.0,-33.0,-59.6875,-47.5625,56.75,-27.375,24.125,2.5,137.75,21.0625,-154.9375,0.8955078125,0.34521484375,0.2510986328125,0.1256103515625,-286.0,-418.0,792.0,356.0,390.0,-826.0,808,807.852977924274,157.5951529993028,
189,9.256925344467163,0.048004865646362305,20.83122172170432,20.417146403040263,101438.5,45.0,7.0,-43.0,-59.1875,-45.875,52.5625,-27.1875,23.5,2.3125,137.875,22.125,-153.5,0.891845703125,0.3426513671875,0.26409912109375,0.1322021484375,145.0,249.0,-1114.0,373.0,408.0,-809.0,798,805.8823823394192,137.73064634418037,
190,9.304930210113525,0.048004865646362305,20.83122172170432,20.419282650125528,101441.75,46.0,2.0,-54.0,-60.6875,-49.1875,50.1875,-39.6875,32.9375,-2.0625,137.9375,23.25,-151.75,0.887939453125,0.34112548828125,0.27569580078125,0.138671875,-346.0,-447.0,744.0,391.0,431.0,-789.0,836,811.9059058715354,136.50531713410396,
191,9.35493540763855,0.050005197525024414,19.9979212060819,20.417030335029732,101441.75,255.0,219.0,-695.0,-62.5625,-50.0,48.1875,-36.8125,29.9375,-2.5625,137.875,24.4375,-149.5625,0.88067626953125,0.3392333984375,0.294677734375,0.1500244140625,1420.0,1435.0,-2242.0,409.0,455.0,-766.0,761,801.7247246972285,102.49453952983005,
192,9.404940366744995,0.05000495910644531,19.998016554144257,20.414802488157644,101441.75,46.0,3.0,-34.0,-62.875,-53.75,45.0625,-46.625,37.0,-4.875,137.6875,25.75,-147.0625,0.8739013671875,0.3377685546875,0.31085205078125,0.1597900390625,-380.0,-476.0,706.0,426.0,479.0,-741.0,672,775.7797797577828,40.36034173730742,
193,9.45494532585144,0.05000495910644531,19.998016554144257,20.412598206390992,101441.75,231.0,323.0,-509.0,-63.875,-55.5625,41.75,-54.375,45.3125,-4.4375,137.5,27.125,-144.25,0.86505126953125,0.33587646484375,0.33050537109375,0.172119140625,-215.0,-186.0,198.0,447.0,509.0,-708.0,681,756.8238238062263,-1.583844528308866,
194,9.504950284957886,0.05000495910644531,19.998016554144257,20.41041711780606,101441.75,1016.0,1084.0,-1432.0,-65.0,-57.375,38.6875,-49.375,39.3125,-4.1875,235.5,28.5625,-141.0,0.8546142578125,0.33319091796875,0.3524169921875,0.1856689453125,547.0,543.0,-763.0,469.0,541.0,-669.0,662,737.859059044981,-39.35122803956151,
195,9.551954984664917,0.04700469970703125,21.274468430449602,20.41466907173041,101441.75,779.0,866.0,-980.0,-66.0625,-60.375,33.875,-52.5625,42.625,-1.375,235.875,30.125,-137.4375,0.84271240234375,0.32928466796875,0.376220703125,0.19976806640625,287.0,293.0,-355.0,492.0,573.0,-624.0,630,716.2872472359849,-81.30898816741418,
196,9.60096001625061,0.04900503158569336,20.4060678596102,20.414625169592405,101441.75,508.0,559.0,-563.0,-67.1875,-62.5625,29.1875,-58.5,47.6875,0.75,236.125,31.75,-133.625,0.8297119140625,0.32403564453125,0.4010009765625,0.2139892578125,-8.0,-43.0,12.0,516.0,603.0,-575.0,583,689.629797788788,-127.57546158903557,
197,9.648964643478394,0.0480046272277832,20.831325181528314,20.416698296552436,101439.75,452.0,486.0,-454.0,-68.25,-64.0,22.0,-62.375,52.3125,1.875,236.1875,33.4375,-129.5625,0.81549072265625,0.31756591796875,0.42681884765625,0.22802734375,-87.0,-143.0,67.0,540.0,630.0,-521.0,588,669.3038382310305,-157.15958274755607,
198,9.697969675064087,0.04900503158569336,20.4060678596102,20.41664457964925,101439.75,526.0,565.0,-448.0,-68.1875,-65.0625,16.0625,-64.0625,54.875,3.375,236.0625,35.125,-125.1875,0.79974365234375,0.31024169921875,0.45361328125,0.24176025390625,-37.0,-89.0,14.0,564.0,655.0,-462.0,546,644.6430705848244,-191.76655427865654,
199,9.747974634170532,0.05000495910644531,19.998016554144257,20.41449711024337,101439.75,604.0,654.0,-427.0,-69.6875,-65.5,10.0625,-64.9375,57.125,4.6875,235.875,36.75,-120.5,0.782470703125,0.302001953125,0.48101806640625,0.25518798828125,16.0,-22.0,-28.0,587.0,676.0,-399.0,593,634.3144564678596,-193.24507846003388,
200,9.79897952079773,0.051004886627197266,19.605964567849295,20.410288599492667,101439.75,622.0,660.0,-346.0,-70.0,-65.5,3.375,-62.375,57.0,5.75,235.5,38.25,-115.625,0.76422119140625,0.293212890625,0.50823974609375,0.26763916015625,14.0,-32.0,-13.0,607.0,693.0,-333.0,522,611.8515651742877,-217.9612356933527,
201,9.843984127044678,0.04500460624694824,22.219947765187033,20.418561977135514,101439.75,663.0,703.0,-303.0,-70.375,-67.0,-3.0,-58.8125,55.3125,5.625,235.125,39.375,-111.8125,0.7493896484375,0.286376953125,0.52911376953125,0.2764892578125,41.0,0.0,-22.0,622.0,703.0,-281.0,499,589.2812521394301,-246.31622979186298,
202,9.889988899230957,0.0460047721862793,21.736875382207526,20.424694310395786,101439.75,674.0,709.0,-228.0,-70.375,-65.0,-9.6875,-53.9375,49.8125,5.9375,234.75,40.5,-107.125,0.7314453125,0.2779541015625,0.55291748046875,0.28643798828125,37.0,-3.0,-8.0,637.0,712.0,-220.0,593,590.0250017115441,-220.0679276362155,
203,9.940993785858154,0.051004886627197266,19.605964567849295,20.420493601835208,101439.75,675.0,705.0,-159.0,-69.25,-64.6875,-14.75,-43.1875,40.4375,7.375,234.375,41.375,-103.0625,0.71563720703125,0.2698974609375,0.57293701171875,0.29449462890625,27.0,-10.0,7.0,648.0,716.0,-166.0,541,580.2200013692353,-217.2847838024995,
204,9.9909987449646,0.05000495910644531,19.998016554144257,20.418379103772253,101439.75,672.0,697.0,-117.0,-69.1875,-63.5,-20.375,-28.4375,28.0625,10.1875,233.875,42.125,-100.0625,0.7042236328125,0.262939453125,0.58795166015625,0.298828125,14.0,-18.0,9.0,657.0,715.0,-127.0,438,551.7760010953883,-252.43866425649716,
205,10.03800368309021,0.04700493812561035,21.274360522031113,20.42238740610728,101446.75,678.0,688.0,-95.0,-68.875,-62.375,-21.5625,-15.0625,15.5,13.0625,233.1875,42.8125,-98.25,0.69781494140625,0.2568359375,0.5977783203125,0.299560546875,11.0,-23.0,8.0,667.0,711.0,-103.0,532,547.8208008763107,-235.60923337059478,
206,10.086008310317993,0.0480046272277832,20.831325181528314,20.424333756423923,101446.75,684.0,679.0,-92.0,-68.875,-62.375,-21.5625,-4.0,6.8125,15.3125,232.3125,43.6875,-97.625,0.6964111328125,0.25164794921875,0.6031494140625,0.29656982421875,15.0,-28.0,7.0,677.0,702.0,-94.0,424,523.0566407010485,-263.6353373793693,
207,10.133013010025024,0.04700469970703125,21.274468430449602,20.428277334215007,101446.75,699.0,666.0,-95.0,-69.875,-62.25,-24.75,8.375,-4.4375,17.1875,231.5625,44.3125,-98.0,0.6986083984375,0.2484130859375,0.60418701171875,0.2918701171875,14.0,-27.0,2.0,685.0,694.0,-97.0,490,516.4453125608388,-251.3370528216558,
208,10.180017709732056,0.04700469970703125,21.274468430449602,20.43218449425219,101446.75,713.0,655.0,-122.0,-70.25,-60.0625,-23.1875,20.1875,-16.0625,17.6875,230.4375,45.125,-99.4375,0.70538330078125,0.24542236328125,0.6014404296875,0.28363037109375,17.0,-26.0,-8.0,695.0,681.0,-113.0,461,505.3562500486711,-249.79473857332968,
209,10.227022647857666,0.04700493812561035,21.274360522031113,20.43605526225962,101446.75,722.0,644.0,-149.0,-71.25,-59.6875,-22.6875,29.875,-25.1875,17.625,229.375,45.8125,-101.9375,0.71600341796875,0.24395751953125,0.59429931640625,0.27325439453125,15.0,-28.0,-11.0,703.0,668.0,-141.0,504,505.0850000389369,-225.3923317658656,
210,10.273027181625366,0.046004533767700195,21.736988033603343,20.441881082103247,101446.75,730.0,636.0,-195.0,-72.5,-58.5625,-20.6875,35.0,-29.9375,16.5625,228.5,46.1875,-104.5,0.72613525390625,0.243896484375,0.58612060546875,0.26409912109375,16.0,-29.0,-29.0,708.0,656.0,-170.0,522,508.4680000311496,-195.4994755544384,
211,10.323032140731812,0.05000495910644531,19.998016554144257,20.43973099409937,101446.75,734.0,613.0,-243.0,-74.25,-57.75,-16.6875,37.3125,-34.5625,13.6875,227.4375,46.4375,-108.125,0.73974609375,0.24462890625,0.57373046875,0.25244140625,22.0,-32.0,-34.0,711.0,641.0,-210.0,527,512.1744000249197,-168.5374631558251,
212,10.373037099838257,0.05000495910644531,19.998016554144257,20.437601635812683,101446.75,739.0,602.0,-286.0,-74.6875,-58.0625,-13.0625,37.5,-36.625,8.9375,226.6875,46.375,-111.8125,0.75341796875,0.24639892578125,0.5596923828125,0.24169921875,32.0,-26.0,-39.0,710.0,627.0,-251.0,518,513.3395200199358,-149.35370794545298,
213,10.420041799545288,0.04700469970703125,21.274468430449602,20.44137673318114,101442.75,732.0,591.0,-326.0,-76.5625,-58.0625,-9.0625,38.9375,-40.1875,3.875,226.1875,45.875,-115.625,0.7669677734375,0.2496337890625,0.54364013671875,0.232177734375,27.0,-21.0,-40.0,704.0,615.0,-295.0,518,514.2716160159487,-132.4353524667752,
214,10.46804666519165,0.048004865646362305,20.83122172170432,20.44316450284778,101442.75,716.0,583.0,-377.0,-78.0,-57.75,-5.5,38.9375,-43.125,1.0,226.0,45.0,-119.375,0.7803955078125,0.2537841796875,0.52593994140625,0.2235107421875,21.0,-17.0,-43.0,693.0,603.0,-340.0,551,521.6172928127589,-103.88987501506435,
215,10.517051458358765,0.04900479316711426,20.406167139402843,20.442992111550605,101442.75,698.0,568.0,-431.0,-78.0,-56.6875,-0.75,38.625,-42.3125,-0.25,225.9375,43.9375,-123.0,0.79345703125,0.25823974609375,0.50732421875,0.2152099609375,15.0,-22.0,-49.0,680.0,591.0,-385.0,522,521.6938342502071,-93.34469577699207,
216,10.56705641746521,0.05000495910644531,19.998016554144257,20.440886417810322,101442.75,684.0,560.0,-482.0,-78.375,-57.0625,3.1875,33.75,-36.9375,-0.625,225.875,42.8125,-126.25,0.804931640625,0.26239013671875,0.4901123046875,0.2073974609375,6.0,-29.0,-58.0,667.0,579.0,-425.0,602,537.7550674001658,-51.89094555800852,
217,10.61406135559082,0.04700493812561035,21.274360522031113,20.444577502437184,101442.75,665.0,542.0,-517.0,-77.25,-57.5,6.0,28.5,-32.125,-0.625,225.8125,42.0,-128.375,0.8126220703125,0.26507568359375,0.47802734375,0.2021484375,9.0,-27.0,-65.0,656.0,570.0,-452.0,508,531.8040539201327,-59.36225162677681,
218,10.663066148757935,0.04900479316711426,20.406167139402843,20.444400977986362,101442.75,657.0,536.0,-547.0,-77.1875,-56.25,12.0,23.3125,-26.1875,-1.4375,225.75,41.125,-130.5625,0.82037353515625,0.26800537109375,0.46527099609375,0.19659423828125,11.0,-24.0,-67.0,645.0,560.0,-480.0,588,543.0432431361062,-30.491149098846183,
219,10.710070848464966,0.04700469970703125,21.274468430449602,20.448044004432376,101442.75,647.0,527.0,-550.0,-76.875,-55.5,14.75,17.1875,-19.5,-2.3125,225.8125,40.5,-131.875,0.8250732421875,0.2701416015625,0.4571533203125,0.19317626953125,9.0,-27.0,-53.0,635.0,553.0,-501.0,560,546.434594508885,-20.227114417287144,
220,10.760075807571411,0.05000495910644531,19.998016554144257,20.44595260613269,101442.75,636.0,522.0,-571.0,-76.5,-56.0,16.375,9.9375,-13.5625,-2.8125,225.75,39.875,-133.25,0.83001708984375,0.27203369140625,0.448486328125,0.1893310546875,6.0,-24.0,-55.0,629.0,547.0,-515.0,560,549.147675607108,-12.778778904058429,
221,10.809080600738525,0.04900479316711426,20.406167139402843,20.44577223199726,101440.0,627.0,521.0,-576.0,-76.0625,-55.875,18.0625,3.3125,-6.5625,-3.625,225.8125,39.4375,-134.0625,0.83294677734375,0.2734375,0.4429931640625,0.18743896484375,4.0,-21.0,-49.0,623.0,543.0,-526.0,621,563.5181404856864,17.823709804666436,
222,10.860085725784302,0.05100512504577637,19.60587292164296,20.441827588241015,101440.0,624.0,524.0,-570.0,-76.5,-55.5,18.875,-2.9375,-0.1875,-3.9375,226.0625,39.1875,-134.3125,0.83392333984375,0.2744140625,0.44061279296875,0.18731689453125,4.0,-19.0,-39.0,619.0,543.0,-531.0,583,567.4145123885492,23.68051606249844,
223,10.910090684890747,0.05000495910644531,19.998016554144257,20.439793439006884,101440.0,626.0,532.0,-570.0,-76.5,-56.25,19.5625,-8.625,5.75,-4.0625,226.3125,39.125,-134.0625,0.83319091796875,0.27484130859375,0.441162109375,0.1888427734375,6.0,-13.0,-41.0,619.0,546.0,-529.0,593,572.5316099108394,31.545644552241672,
224,10.957095384597778,0.04700469970703125,21.274468430449602,20.443374100299735,101440.0,631.0,540.0,-556.0,-76.0625,-56.5625,17.25,-13.0625,10.9375,-3.6875,226.625,39.25,-133.3125,0.830810546875,0.27471923828125,0.4444580078125,0.191650390625,10.0,-10.0,-34.0,620.0,551.0,-521.0,508,559.6252879286716,0.9335661407328217,
225,11.008100509643555,0.05100512504577637,19.60587292164296,20.439493607720117,101440.0,635.0,551.0,-538.0,-75.6875,-57.375,16.375,-17.0625,15.875,-2.9375,226.875,39.5625,-132.25,0.8270263671875,0.2740478515625,0.4501953125,0.1954345703125,9.0,-7.0,-30.0,625.0,559.0,-508.0,569,561.5002303429374,4.5161977976088625,
226,11.05910587310791,0.05100536346435547,19.605781276293403,20.435648468612396,101440.0,643.0,563.0,-524.0,-75.375,-57.375,15.25,-20.5,20.1875,-1.5,227.125,40.0625,-130.875,0.8221435546875,0.27264404296875,0.4580078125,0.1998291015625,12.0,-4.0,-29.0,631.0,567.0,-490.0,626,574.40018427435,29.355945543201635,
227,11.107110500335693,0.0480046272277832,20.831325181528314,20.43735857252337,101440.0,648.0,575.0,-496.0,-75.6875,-58.0625,13.5625,-22.625,23.0,-0.4375,227.25,40.6875,-129.25,0.81640625,0.27056884765625,0.4674072265625,0.2044677734375,8.0,0.0,-26.0,639.0,575.0,-470.0,579,575.32014741948,28.336756132004044,
228,11.157115459442139,0.05000495910644531,19.998016554144257,20.435389490125445,101440.0,661.0,583.0,-473.0,-76.5,-57.375,10.75,-24.25,26.25,1.25,227.1875,41.4375,-127.375,0.80975341796875,0.26788330078125,0.478271484375,0.20916748046875,11.0,0.0,-27.0,649.0,583.0,-446.0,551,570.4561179355841,15.775986304923975,
229,11.203120231628418,0.0460047721862793,21.736875382207526,20.440733944235635,101439.25,672.0,582.0,-431.0,-76.5,-58.0625,8.375,-24.625,27.6875,2.5625,227.125,42.3125,-125.3125,0.8023681640625,0.26446533203125,0.49041748046875,0.2138671875,12.0,-8.0,-11.0,660.0,591.0,-419.0,565,569.3648943484673,11.826408561703209,
230,11.253125190734863,0.05000495910644531,19.998016554144257,20.43876666273721,101439.25,688.0,593.0,-398.0,-76.5,-58.0625,6.0,-22.3125,24.4375,3.0,226.9375,43.1875,-123.3125,0.7950439453125,0.260986328125,0.50213623046875,0.21832275390625,17.0,-3.0,-5.0,671.0,597.0,-392.0,541,563.6919154787738,-0.7010648292111359,
231,11.302129983901978,0.04900479316711426,20.406167139402843,20.438625314787696,101439.25,699.0,597.0,-373.0,-76.0625,-58.875,1.5625,-18.3125,20.0,2.125,226.875,43.8125,-121.5,0.78875732421875,0.25787353515625,0.51190185546875,0.22210693359375,20.0,-4.0,-3.0,679.0,602.0,-369.0,508,552.553532383019,-23.360129057757117,
232,11.351135015487671,0.04900503158569336,20.4060678596102,20.438484757996047,101439.25,707.0,599.0,-354.0,-76.5,-58.0625,2.0,-14.0,14.9375,0.375,226.8125,44.3125,-120.125,0.78375244140625,0.255615234375,0.5194091796875,0.22503662109375,22.0,-6.0,-1.0,685.0,606.0,-352.0,494,540.8428259064153,-44.92106325653663,
233,11.397139549255371,0.046004533767700195,21.736988033603343,20.443726164186785,101439.25,706.0,600.0,-338.0,-76.5,-58.875,-2.0,-10.0625,10.625,-1.1875,226.8125,44.5625,-119.3125,0.78070068359375,0.25457763671875,0.52362060546875,0.2269287109375,19.0,-6.0,-1.0,688.0,608.0,-341.0,583,549.2742607251323,-22.101557154827212,
234,11.446144580841064,0.04900503158569336,20.4060678596102,20.443564935539687,101439.25,707.0,605.0,-336.0,-76.875,-58.5,-2.375,-6.6875,5.625,-3.375,227.0,44.625,-118.5,0.77801513671875,0.254150390625,0.52685546875,0.229248046875,18.0,-7.0,-3.0,689.0,612.0,-333.0,532,545.8194085801059,-26.941396170977335,
235,11.492149114608765,0.046004533767700195,21.736988033603343,20.44874267261892,101439.25,704.0,609.0,-333.0,-76.5,-58.5,-4.0,-4.0,1.625,-5.5,227.3125,44.5625,-118.0625,0.7763671875,0.2547607421875,0.52801513671875,0.2314453125,15.0,-6.0,-4.0,688.0,616.0,-328.0,607,558.0555268640848,2.3503791177807116,
