Index,Time,Difference,Hz,AveHz,0x6103 Pressure,0x6103 Acceleration-X,0x6103 Acceleration-Y,0x6103 Acceleration-Z,0x6103 Magnetic-X,0x6103 Magnetic-Y,0x6103 Magnetic-Z,0x6103 Angular-Vel-X,0x6103 Angular-Vel-Y,0x6103 Angular-Vel-Z,0x6103 Heading,0x6103 Roll,0x6103 Pitch,0x6103 Quaternion-X,0x6103 Quaternion-Y,0x6103 Quaternion-Z,0x6103 Quaternion-W,0x6103 Linear-Acceleration-X,0x6103 Linear-Acceleration-Y,0x6103 Linear-Acceleration-Z,0x6103 Gravity-X,0x6103 Gravity-Y,0x6103 Gravity-Z,0x6103 Range,0x6103 Smoothed Range,0x6103 Velocity,
0,0.0010001659393310547,0.0010001659393310547,999.8340882002384,0.0,101522.25,-21.0,995.0,76.0,-24.25,-52.375,-0.875,-5.125,-0.375,0.75,93.8125,-0.75,-88.375,-0.4830322265625,0.50274658203125,0.523681640625,-0.48956298828125,-8.0,14.0,49.0,-13.0,980.0,27.0,0,0.0,0.0,
1,0.060006141662597656,0.0590059757232666,16.947436047662723,16.664960823890276,101522.25,-7.0,997.0,22.0,-25.75,-52.0,-0.875,4.75,-1.9375,3.0625,93.75,-0.625,-88.5,-0.482666015625,0.50421142578125,0.52288818359375,-0.4892578125,11.0,14.0,-6.0,-11.0,980.0,25.0,0,0.0,0.0,
2,0.12301230430603027,0.06300616264343262,15.871463330646657,16.25853617882318,101522.25,5.0,981.0,-28.0,-26.1875,-52.0,-0.5,1.5625,-3.8125,1.25,93.8125,-0.5625,-88.6875,-0.48272705078125,0.505615234375,0.522216796875,-0.48846435546875,13.0,0.0,-29.0,-9.0,980.0,22.0,0,0.0,0.0,
3,0.18101811408996582,0.05800580978393555,17.239652436969262,16.57292705253245,101522.25,0.0,974.0,15.0,-26.1875,-52.0,-1.25,-0.0625,-0.0625,-2.0,93.875,-0.625,-88.625,-0.4825439453125,0.50518798828125,0.5228271484375,-0.4884033203125,-1.0,-3.0,-22.0,-10.0,980.0,23.0,0,0.0,0.0,
4,0.2450244426727295,0.06400632858276367,15.623455088615893,16.32490194189589,101522.25,-21.0,982.0,10.0,-25.375,-52.375,-0.0625,3.4375,-0.4375,-0.8125,93.9375,-0.6875,-88.625,-0.48284912109375,0.5048828125,0.52313232421875,-0.4881591796875,-9.0,1.0,-12.0,-12.0,980.0,23.0,0,0.0,0.0,
5,0.3130314350128174,0.06800699234008789,14.704370324145813,15.972836720999826,101521.5,-11.0,972.0,27.0,-26.875,-53.5,-0.875,0.8125,6.0,-1.5,93.875,-0.75,-88.5625,-0.48394775390625,0.50360107421875,0.52288818359375,-0.48858642578125,2.0,-7.0,-31.0,-13.0,980.0,23.0,0,0.0,0.0,
6,0.3800380229949951,0.06700658798217773,14.923905695153106,15.787893939441465,101521.5,-3.0,958.0,17.0,-25.375,-53.0625,-0.0625,-4.4375,-3.0,-2.4375,93.9375,-0.875,-88.5625,-0.48419189453125,0.503173828125,0.5233154296875,-0.4884033203125,0.0,-21.0,-6.0,-14.0,980.0,23.0,0,0.0,0.0,
7,0.4420440196990967,0.06200599670410156,16.127472392260604,15.835526979337855,101521.5,-52.0,969.0,148.0,-26.1875,-53.5,-0.5,1.0625,-10.9375,3.3125,94.0,-0.8125,-88.4375,-0.48321533203125,0.503173828125,0.52423095703125,-0.4884033203125,-37.0,-10.0,122.0,-14.0,980.0,26.0,0,0.0,0.0,
8,0.5020501613616943,0.060006141662597656,16.664960823890276,15.93466274027651,101521.5,11.0,978.0,3.0,-26.1875,-53.0625,0.25,-3.75,21.8125,1.375,93.0,-0.5625,-88.5,-0.4854736328125,0.50140380859375,0.51953125,-0.492919921875,21.0,-1.0,-21.0,-9.0,980.0,25.0,0,0.0,0.0,
9,0.565056562423706,0.06300640106201172,15.871403272435558,15.927609019168202,101521.5,-32.0,972.0,111.0,-26.5,-53.875,-2.0625,-4.0,15.0625,0.5,92.4375,-0.5625,-88.625,-0.48876953125,0.49871826171875,0.5162353515625,-0.49591064453125,-28.0,-23.0,122.0,-9.0,980.0,24.0,0,0.0,0.0,
10,0.6260626316070557,0.06100606918334961,16.391811722774136,15.972842803811421,101521.5,42.0,1010.0,-248.0,-26.1875,-53.0625,-2.5,16.6875,14.875,4.4375,90.9375,-0.125,-89.125,-0.49456787109375,0.4991455078125,0.5072021484375,-0.49896240234375,46.0,30.0,-3.0,-3.0,980.0,12.0,0,0.0,0.0,
11,0.6870687007904053,0.06100606918334961,16.391811722774136,16.01004380980472,101518.0,41.0,976.0,-150.0,-26.875,-53.5,0.25,30.125,15.8125,4.25,90.1875,-0.4375,-90.0,-0.50323486328125,0.4969482421875,0.5009765625,-0.49884033203125,49.0,-4.0,-150.0,-8.0,980.0,0.0,0,0.0,0.0,
12,0.7470748424530029,0.060006141662597656,16.664960823890276,16.0626477001933,101518.0,-32.0,1006.0,-45.0,-26.1875,-54.25,0.25,-11.6875,10.3125,-11.1875,89.75,-0.625,-90.625,-0.50958251953125,0.4962158203125,0.4962158203125,-0.49786376953125,-21.0,25.0,-33.0,-11.0,980.0,-11.0,0,0.0,0.0,
13,0.8090808391571045,0.06200599670410156,16.127472392260604,16.067615707650823,101518.0,-118.0,1051.0,182.0,-25.75,-53.5,0.25,8.25,2.4375,-4.875,89.3125,-0.9375,-90.75,-0.5146484375,0.49200439453125,0.49365234375,-0.499267578125,-102.0,71.0,196.0,-16.0,980.0,-13.0,0,0.0,0.0,
14,0.8710870742797852,0.062006235122680664,16.127410380931508,16.071872047435903,101518.0,-107.0,813.0,-11.0,-25.375,-54.5625,0.25,-9.5625,36.5,-7.8125,87.75,-1.1875,-91.4375,-0.5247802734375,0.487548828125,0.48504638671875,-0.50164794921875,-38.0,-104.0,-124.0,-19.0,980.0,-25.0,0,0.0,0.0,
15,0.9340932369232178,0.06300616264343262,15.871463330646657,16.05835414182856,101518.0,-129.0,912.0,-105.0,-25.0,-55.0,1.0625,-31.4375,95.5625,15.1875,82.75,-0.0625,-90.5,-0.533447265625,0.46881103515625,0.46533203125,-0.52825927734375,-128.0,-68.0,-96.0,-1.0,980.0,-8.0,0,0.0,0.0,
16,1.0021002292633057,0.06800699234008789,14.704370324145813,15.966466759280562,101518.0,168.0,1051.0,-98.0,-26.875,-52.75,-7.25,3.875,82.4375,44.8125,71.125,2.25,-87.125,-0.54412841796875,0.42352294921875,0.4215087890625,-0.5889892578125,128.0,72.0,-146.0,39.0,978.0,48.0,0,0.0,0.0,
17,1.0701069831848145,0.06800675392150879,14.704421874835665,15.886262090735267,101521.5,192.0,1106.0,-71.0,-27.25,-52.375,-10.5,20.8125,-33.25,5.625,70.1875,3.0625,-87.9375,-0.54534912109375,0.4296875,0.4139404296875,-0.5887451171875,139.0,128.0,-106.0,53.0,978.0,35.0,0,0.0,0.0,
18,1.1411139965057373,0.07100701332092285,14.083115923780744,15.774059432378104,101521.5,275.0,1093.0,-58.0,-26.875,-52.5,-9.25,5.875,-6.0625,28.8125,72.25,2.0625,-88.0,-0.5460205078125,0.4300537109375,0.42401123046875,-0.58062744140625,224.0,43.0,-15.0,35.0,979.0,33.0,0,0.0,0.0,
19,1.2151212692260742,0.07400727272033691,13.51218553585753,15.63629942228016,101521.5,244.0,976.0,-275.0,-27.6875,-52.0,-9.6875,20.8125,-59.4375,-9.0625,75.1875,1.0625,-88.5,-0.54486083984375,0.4365234375,0.436767578125,-0.5672607421875,225.0,-3.0,-300.0,18.0,980.0,24.0,0,0.0,0.0,
20,1.278127908706665,0.06300663948059082,15.871343214678982,15.647886149546611,101521.5,127.0,1259.0,126.0,-26.5,-52.75,-8.5,29.8125,-105.5,-60.0,82.75,-0.25,-89.625,-0.5311279296875,0.46343994140625,0.468994140625,-0.53216552734375,132.0,278.0,120.0,-4.0,980.0,6.0,0,0.0,0.0,
21,1.3431341648101807,0.06500625610351562,15.383134792559122,15.635072467215394,101521.5,-167.0,784.0,-456.0,-23.1875,-56.0625,-0.875,9.25,-88.9375,-35.5625,92.625,-4.375,-92.8125,-0.5394287109375,0.48370361328125,0.49847412109375,-0.47607421875,-165.0,-213.0,-52.0,-75.0,976.0,-48.0,0,0.0,0.0,
22,1.4061405658721924,0.06300640106201172,15.871403272435558,15.645661987110067,101521.5,112.0,901.0,-22.0,-21.75,-55.5,3.875,16.0,-55.1875,20.25,95.75,-4.5625,-93.0,-0.52850341796875,0.49725341796875,0.51031494140625,-0.46148681640625,191.0,-74.0,29.0,-78.0,976.0,-52.0,0,0.0,0.0,
23,1.467146635055542,0.06100606918334961,16.391811722774136,15.676687967272805,101526.0,-385.0,798.0,235.0,-22.0625,-55.75,3.875,-0.5,4.3125,43.9375,96.5625,-4.8125,-92.1875,-0.52294921875,0.49591064453125,0.5177001953125,-0.4610595703125,-97.0,-133.0,226.0,-82.0,976.0,-38.0,0,0.0,0.0,
24,1.5281527042388916,0.06100606918334961,16.391811722774136,15.705236743309229,101526.0,212.0,1061.0,-26.0,-20.6875,-56.1875,2.6875,-4.9375,2.1875,28.0,93.4375,-2.1875,-92.0625,-0.513427734375,0.5048828125,0.50537109375,-0.4754638671875,44.0,161.0,155.0,-38.0,979.0,-36.0,0,0.0,0.0,
25,1.5931594371795654,0.06500673294067383,15.383021954243045,15.69208920122804,101526.0,-230.0,939.0,-3.0,-22.875,-54.375,3.0625,15.8125,63.75,1.375,90.0,-1.75,-92.75,-0.52764892578125,0.4957275390625,0.48785400390625,-0.4876708984375,-200.0,-39.0,43.0,-30.0,979.0,-47.0,0,0.0,0.0,
26,1.657165765762329,0.06400632858276367,15.623455088615893,15.6894382790001,101526.0,521.0,1079.0,156.0,-24.375,-53.5625,2.6875,17.0625,18.0625,54.375,85.6875,0.6875,-93.5625,-0.52825927734375,0.5020751953125,0.46563720703125,-0.5020751953125,391.0,82.0,217.0,12.0,978.0,-61.0,0,0.0,0.0,
27,1.7231721878051758,0.06600642204284668,15.150040996781662,15.668776568631955,101526.0,-288.0,867.0,-10.0,-27.75,-53.1875,2.25,-20.875,-44.375,-9.5,88.0625,-0.1875,-93.25,-0.52435302734375,0.503662109375,0.477294921875,-0.49359130859375,-305.0,-90.0,128.0,-3.0,979.0,-56.0,0,0.0,0.0,
28,1.7871787548065186,0.06400656700134277,15.623396892681672,15.667151327026211,101526.0,-282.0,1151.0,-55.0,-27.0,-54.375,2.25,5.6875,-37.3125,-0.9375,90.5,-0.25,-93.625,-0.5155029296875,0.5157470703125,0.4862060546875,-0.48150634765625,-278.0,173.0,7.0,-4.0,978.0,-62.0,0,0.0,0.0,
29,1.8521852493286133,0.06500649452209473,15.38307837319416,15.65718116506544,101516.25,575.0,1182.0,-162.0,-25.875,-52.5,5.0625,19.5,-42.625,6.4375,91.5,1.3125,-94.5625,-0.50006103515625,0.53839111328125,0.48590087890625,-0.47320556640625,552.0,205.0,-83.0,23.0,977.0,-78.0,0,0.0,0.0,
30,1.913191318511963,0.06100606918334961,16.391811722774136,15.68060638249881,101516.25,-202.0,885.0,-214.0,-28.0625,-52.0625,7.0625,-2.0,-40.0625,-9.5,96.625,-0.25,-95.0,-0.49041748046875,0.54962158203125,0.50701904296875,-0.44757080078125,-219.0,-77.0,-43.0,-5.0,977.0,-83.0,0,0.0,0.0,
31,1.9781978130340576,0.06500649452209473,15.38307837319416,15.670829173779037,101516.25,-134.0,1014.0,4.0,-24.375,-53.5625,9.0625,-32.0625,9.9375,-1.25,97.25,-0.1875,-93.8125,-0.48345947265625,0.54510498046875,0.51318359375,-0.45361328125,-81.0,97.0,168.0,-1.0,978.0,-60.0,0,0.0,0.0,
32,2.0482046604156494,0.0700068473815918,14.28431699758199,15.623438720965574,101516.25,-89.0,903.0,-314.0,-26.25,-52.875,5.875,6.4375,-12.8125,-43.3125,96.6875,0.0,-93.875,-0.48529052734375,0.546630859375,0.50994873046875,-0.45355224609375,-90.0,-75.0,-247.0,0.0,978.0,-67.0,0,0.0,0.0,
33,2.1132113933563232,0.06500673294067383,15.383021954243045,15.616043006273742,101516.25,-5.0,977.0,-59.0,-25.875,-53.5625,6.25,21.3125,42.25,16.0625,95.625,-0.125,-93.8125,-0.49163818359375,0.54010009765625,0.50628662109375,-0.45849609375,-3.0,-1.0,6.0,-2.0,978.0,-65.0,0,0.0,0.0,
34,2.180217981338501,0.06700658798217773,14.923905695153106,15.594770931632434,101516.25,214.0,1221.0,-4.0,-26.25,-53.1875,5.875,-28.8125,40.875,14.4375,91.9375,1.0625,-93.0,-0.494140625,0.5311279296875,0.49493408203125,-0.4783935546875,263.0,285.0,172.0,19.0,979.0,-46.0,0,0.0,0.0,
35,2.247224807739258,0.06700682640075684,14.923852594050105,15.574765764182947,101516.25,-24.0,673.0,-341.0,-26.5625,-53.1875,3.875,-34.8125,65.5625,-18.6875,90.0625,0.0,-92.0625,-0.5084228515625,0.5098876953125,0.490966796875,-0.49041748046875,-25.0,-306.0,-305.0,0.0,979.0,-36.0,0,0.0,0.0,
36,2.3142313957214355,0.06700658798217773,14.923905695153106,15.555920668329454,101516.25,172.0,978.0,69.0,-25.875,-53.5625,1.0625,-52.4375,-29.4375,-0.8125,88.875,0.8125,-88.9375,-0.492919921875,0.498046875,0.4996337890625,-0.50927734375,158.0,-48.0,3.0,14.0,980.0,9.0,0,0.0,0.0,
37,2.3832383155822754,0.06900691986083984,14.491300322005555,15.525094472543389,101516.25,-74.0,1116.0,95.0,-26.5625,-53.5625,-0.875,-41.125,-12.3125,21.4375,89.3125,1.8125,-86.0625,-0.469482421875,0.49566650390625,0.51373291015625,-0.51953125,-106.0,138.0,29.0,31.0,977.0,66.0,0,0.0,0.0,
38,2.449244976043701,0.06600666046142578,15.149986274254836,15.514985381895901,101516.25,-59.0,975.0,245.0,-28.0625,-52.5,-2.875,-40.1875,-11.5625,61.3125,88.0,4.0,-83.9375,-0.4471435546875,0.49755859375,0.51629638671875,-0.53466796875,-128.0,2.0,142.0,68.0,972.0,102.0,0,0.0,0.0,
39,2.515251398086548,0.06600642204284668,15.150040996781662,15.505408337977212,101516.25,25.0,911.0,230.0,-29.875,-51.375,-4.875,-30.1875,-62.8125,41.75,86.5,7.625,-82.6875,-0.416015625,0.51373291015625,0.51434326171875,-0.5462646484375,-104.0,-52.0,106.0,130.0,964.0,123.0,0,0.0,0.0,
40,2.5822582244873047,0.06700682640075684,14.923852594050105,15.490317591278778,101518.5,368.0,1021.0,107.0,-33.25,-50.1875,-4.5,-6.5,-4.75,-27.3125,86.0625,8.8125,-80.875,-0.400146484375,0.51190185546875,0.51898193359375,-0.55548095703125,218.0,64.0,-45.0,150.0,956.0,152.0,0,0.0,0.0,
41,2.6482648849487305,0.06600666046142578,15.149986274254836,15.481835005637567,101518.5,221.0,1150.0,550.0,-33.25,-50.1875,-5.5625,-18.0,2.75,31.0,87.4375,7.875,-79.6875,-0.39691162109375,0.504150390625,0.5303955078125,-0.5540771484375,86.0,195.0,377.0,135.0,955.0,173.0,0,0.0,0.0,
42,2.7162716388702393,0.06800675392150879,14.704421874835665,15.462371067375566,101518.5,-74.0,1034.0,250.0,-33.25,-49.5,-6.0,-19.5625,-9.0625,3.875,87.875,7.75,-79.6875,-0.396240234375,0.50469970703125,0.5322265625,-0.55224609375,-207.0,78.0,77.0,133.0,956.0,173.0,0,0.0,0.0,
43,2.781278133392334,0.06500649452209473,15.38307837319416,15.460517768337235,101518.5,291.0,954.0,281.0,-32.1875,-48.75,-7.1875,-15.5625,-41.0625,-0.625,88.3125,8.5,-79.375,-0.3861083984375,0.50994873046875,0.53564453125,-0.55126953125,145.0,1.0,102.0,145.0,953.0,178.0,0,0.0,0.0,
44,2.8452844619750977,0.06400632858276367,15.623455088615893,15.464183138109407,101518.5,65.0,1090.0,598.0,-33.25,-49.875,-6.75,-3.875,5.9375,-26.875,90.6875,6.6875,-78.5,-0.3892822265625,0.50018310546875,0.550537109375,-0.54327392578125,196.0,48.0,288.0,112.0,954.0,192.0,0,0.0,0.0,
45,2.9122912883758545,0.06700682640075684,14.923852594050105,15.451751059247886,101518.5,-232.0,942.0,408.0,-30.6875,-50.1875,-8.375,2.1875,-16.8125,-43.375,92.125,5.25,-79.125,-0.397216796875,0.49896240234375,0.55596923828125,-0.5330810546875,-265.0,27.0,185.0,88.0,959.0,182.0,0,0.0,0.0,
46,2.971297025680542,0.0590057373046875,16.947504525471942,15.481454597917292,101522.25,-66.0,885.0,259.0,-30.6875,-50.1875,-6.375,29.4375,-19.25,-6.1875,92.8125,5.875,-80.25,-0.39349365234375,0.5113525390625,0.55340576171875,-0.52667236328125,-213.0,-134.0,27.0,101.0,961.0,164.0,0,0.0,0.0,
47,3.0343034267425537,0.06300640106201172,15.871403272435558,15.489551765248601,101522.25,30.0,791.0,168.0,-30.25,-51.375,-5.5625,31.375,7.75,-6.875,93.1875,6.0,-81.875,-0.3973388671875,0.521484375,0.5487060546875,-0.51873779296875,-54.0,-170.0,-13.0,102.0,965.0,137.0,0,0.0,0.0,
48,3.0953094959259033,0.06100606918334961,16.391811722774136,15.507334585823608,101522.25,46.0,856.0,45.0,-31.0625,-51.6875,-3.5625,23.75,38.5,12.0,92.3125,5.5625,-83.3125,-0.4114990234375,0.522216796875,0.5386962890625,-0.51739501953125,-48.0,-112.0,-68.0,95.0,969.0,113.0,0,0.0,0.0,
49,3.161316156387329,0.06600666046142578,15.149986274254836,15.499873336299252,101522.25,267.0,855.0,126.0,-30.25,-52.875,-4.375,0.9375,-8.6875,0.0625,90.4375,5.9375,-84.0625,-0.41925048828125,0.52264404296875,0.5272216796875,-0.52264404296875,176.0,-140.0,44.0,102.0,970.0,100.0,39,7.800000000000001,11.816989293918773,
50,3.229322910308838,0.06800675392150879,14.704421874835665,15.483121814912657,101522.25,145.0,725.0,35.0,-29.5625,-52.0625,-3.1875,-2.4375,-7.6875,-9.0625,92.0,5.0,-84.375,-0.4222412109375,0.5224609375,0.5330810546875,-0.51434326171875,59.0,-247.0,-60.0,85.0,972.0,95.0,49,16.040000000000003,22.75173398939149,
51,3.2943294048309326,0.06500649452209473,15.38307837319416,15.481147673092927,101522.25,227.0,990.0,153.0,-29.1875,-52.0625,-3.5625,-5.875,-0.6875,-10.75,93.1875,3.9375,-83.875,-0.42474365234375,0.5164794921875,0.54022216796875,-0.5108642578125,159.0,17.0,49.0,67.0,972.0,103.0,58,24.432000000000002,33.386039961236875,
52,3.3563356399536133,0.062006235122680664,16.127410380931508,15.49308697884538,101525.5,24.0,990.0,233.0,-28.0625,-54.375,-3.5625,-0.625,-9.75,-15.125,94.625,2.75,-84.0,-0.4293212890625,0.5137939453125,0.54620361328125,-0.50335693359375,-23.0,16.0,132.0,47.0,974.0,101.0,152,49.945600000000006,71.19426571460662,
53,3.425342321395874,0.06900668144226074,14.491350389552059,15.472906071006,101525.5,-4.0,1230.0,248.0,-27.0,-55.0625,-3.1875,-2.25,1.75,6.625,95.0625,2.5625,-84.125,-0.42950439453125,0.514404296875,0.54754638671875,-0.5010986328125,40.0,255.0,255.0,44.0,974.0,99.0,194,78.75648000000001,105.82569485427972,
54,3.491349220275879,0.06600689888000488,15.149931552123329,15.466799965582657,101525.5,164.0,904.0,112.0,-26.5625,-54.375,-2.75,29.5,0.5625,-0.375,94.125,3.375,-85.375,-0.4312744140625,0.5233154296875,0.53826904296875,-0.5003662109375,106.0,-71.0,33.0,58.0,975.0,78.0,278,118.60518400000001,155.61363917293406,
55,3.5613560676574707,0.0700068473815918,14.28431699758199,15.443555475815419,101525.5,29.0,999.0,174.0,-26.5625,-54.6875,-1.1875,5.0625,3.8125,-6.125,94.4375,2.9375,-86.1875,-0.437744140625,0.52508544921875,0.5357666015625,-0.49560546875,-41.0,10.0,114.0,49.0,977.0,63.0,339,162.6841472,203.01606358299577,
56,3.6263625621795654,0.06500649452209473,15.38307837319416,15.442471357949968,101525.5,-48.0,941.0,7.0,-25.875,-54.0,-0.75,4.6875,-1.75,-2.75,94.5625,2.6875,-86.5,-0.4405517578125,0.5257568359375,0.53485107421875,-0.493408203125,-94.0,-42.0,-84.0,46.0,977.0,57.0,424,214.94731776000003,263.1113021003056,
57,3.6993699073791504,0.07300734519958496,13.69725193083291,15.408029320426117,101525.5,-10.0,1027.0,-10.0,-26.5625,-54.6875,-1.1875,-3.9375,3.0,-0.875,94.4375,2.75,-86.4375,-0.44012451171875,0.52496337890625,0.534912109375,-0.49456787109375,-58.0,49.0,-71.0,47.0,977.0,60.0,522,276.35785420800005,320.91573078386034,
58,3.765376567840576,0.06600666046142578,15.149986274254836,15.403505852606582,101525.75,133.0,1133.0,84.0,-26.25,-54.6875,-2.0,-11.25,7.25,12.0,93.25,3.0625,-85.75,-0.4395751953125,0.51947021484375,0.53289794921875,-0.5029296875,80.0,157.0,11.0,53.0,976.0,72.0,499,320.88628336640005,356.2846667618632,
59,3.82938289642334,0.06400632858276367,15.623455088615893,15.407182200324302,101525.75,4.0,962.0,-47.0,-27.0,-55.375,-1.1875,7.0625,-3.4375,-2.75,93.125,3.125,-85.875,-0.44061279296875,0.52008056640625,0.5313720703125,-0.5030517578125,-49.0,-14.0,-116.0,53.0,976.0,69.0,602,377.1090266931201,408.49555061805586,
60,3.8933892250061035,0.06400632858276367,15.623455088615893,15.410737671599207,101525.75,27.0,1056.0,32.0,-25.875,-54.5625,-2.0,-4.625,-3.0,14.25,93.0,3.375,-85.875,-0.43902587890625,0.521240234375,0.5308837890625,-0.50372314453125,-30.0,80.0,-37.0,57.0,976.0,69.0,607,423.08722135449614,439.47982149101506,
61,3.956395387649536,0.06300616264343262,15.871463330646657,15.418074793641802,101525.75,75.0,971.0,7.0,-26.25,-54.5625,-1.1875,8.75,-6.625,8.5625,92.375,4.25,-86.25,-0.435302734375,0.52752685546875,0.52655029296875,-0.50494384765625,2.0,-4.0,-55.0,72.0,975.0,63.0,700,478.4697770835969,483.43205958310534,
62,4.020401954650879,0.06400656700134277,15.623396892681672,15.421343611744392,101525.75,-56.0,830.0,-32.0,-27.75,-54.25,-1.5625,11.3125,-12.125,-4.1875,92.75,4.3125,-87.0625,-0.43572998046875,0.5335693359375,0.52484130859375,-0.5,-131.0,-145.0,-82.0,74.0,976.0,49.0,770,536.7758216668776,526.1827012014935,
63,4.085408449172974,0.06500649452209473,15.38307837319416,15.420734740183287,101525.75,87.0,864.0,52.0,-27.0,-54.5625,-0.75,7.0625,-3.125,4.625,92.6875,4.75,-87.5,-0.4339599609375,0.53875732421875,0.5224609375,-0.49847412109375,5.0,-111.0,10.0,82.0,976.0,42.0,859,601.2206573335021,572.7004268620744,
64,4.15141487121582,0.06600642204284668,15.150040996781662,15.416430779720262,101521.5,185.0,845.0,63.0,-27.75,-54.25,-0.375,5.375,-9.6875,-8.1875,93.0625,4.6875,-88.0,-0.43499755859375,0.54180908203125,0.5220947265625,-0.49462890625,105.0,-131.0,29.0,80.0,976.0,33.0,874,655.7765258668016,598.082748665319,
65,4.21342134475708,0.062006473541259766,16.127348370079286,15.42689294078836,101521.5,57.0,953.0,181.0,-27.375,-54.5625,-0.375,-4.375,-7.625,-2.625,94.3125,3.6875,-87.8125,-0.4376220703125,0.53826904296875,0.52813720703125,-0.48968505859375,-6.0,-24.0,144.0,63.0,977.0,36.0,891,702.8212206934414,614.1450920421157,
66,4.276427507400513,0.06300616264343262,15.871463330646657,15.433442958119741,101521.5,93.0,923.0,171.0,-27.0,-55.0,0.375,-16.8125,-8.0625,5.625,94.5,3.9375,-87.4375,-0.4332275390625,0.5389404296875,0.53057861328125,-0.49029541015625,26.0,-53.0,128.0,67.0,977.0,42.0,947,751.6569765547531,630.2400736756263,
67,4.3424341678619385,0.06600666046142578,15.149986274254836,15.429134308094403,101521.5,66.0,1065.0,175.0,-26.25,-54.25,-1.1875,-17.3125,-4.75,1.4375,94.4375,4.0,-86.3125,-0.427978515625,0.533935546875,0.53521728515625,-0.4952392578125,-3.0,88.0,113.0,69.0,976.0,62.0,1004,802.1255812438026,643.675933140053,
68,4.406440734863281,0.06400656700134277,15.623396892681672,15.431956105069421,101521.5,-89.0,959.0,0.0,-27.75,-55.25,-2.0,-12.1875,-1.75,0.4375,94.375,4.0625,-85.5625,-0.42474365234375,0.53009033203125,0.5384521484375,-0.4986572265625,-173.0,-16.0,-111.0,69.0,975.0,75.0,1046,850.9004649950422,655.5112765500503,
69,4.473447322845459,0.06700658798217773,14.923905695153106,15.424346151931584,101524.75,243.0,933.0,-80.0,-27.375,-54.5625,-1.1875,-20.5625,0.0625,4.4375,93.5,4.625,-84.1875,-0.41778564453125,0.524658203125,0.54052734375,-0.50799560546875,194.0,-10.0,-215.0,79.0,972.0,98.0,1046,889.9203719960339,648.1930901266898,
70,4.536453485488892,0.06300616264343262,15.871463330646657,15.43055609936583,101524.75,130.0,1112.0,-62.0,-27.75,-54.5625,-3.5625,-25.0,3.1875,-9.9375,94.0,4.125,-82.625,-0.4140625,0.51446533203125,0.5491943359375,-0.5120849609375,117.0,159.0,-147.0,70.0,970.0,125.0,1148,941.5362975968271,665.2958081590584,
71,4.599459886550903,0.06300640106201172,15.871403272435558,15.436595111440859,101524.75,71.0,1142.0,23.0,-28.0625,-54.5625,-4.75,-11.8125,2.8125,-9.1875,94.1875,3.5,-81.875,-0.41546630859375,0.507080078125,0.55340576171875,-0.51385498046875,11.0,173.0,-114.0,60.0,969.0,137.0,1214,996.0290380774618,685.2538533019854,
72,4.661466121673584,0.062006235122680664,16.127410380931508,15.445784249130226,101524.75,68.0,1069.0,85.0,-25.875,-56.0625,-6.0,5.75,7.75,8.0625,93.6875,3.6875,-81.75,-0.41552734375,0.506103515625,0.5513916015625,-0.516845703125,4.0,100.0,-54.0,63.0,968.0,139.0,1228,1042.4232304619695,691.5502859594711,
73,4.725472450256348,0.06400632858276367,15.623455088615893,15.448190793290921,101524.75,139.0,959.0,123.0,-27.75,-56.0625,-6.0,12.75,5.625,2.875,92.25,4.5,-82.4375,-0.41748046875,0.51019287109375,0.54217529296875,-0.52105712890625,61.0,-9.0,-5.0,77.0,969.0,128.0,1256,1085.1385843695757,689.1313987005059,
74,4.786478519439697,0.06100606918334961,16.391811722774136,15.460217715269806,101524.75,209.0,927.0,144.0,-27.375,-55.0,-6.75,12.9375,2.75,-4.25,91.375,4.5625,-83.25,-0.42401123046875,0.51171875,0.53485107421875,-0.5218505859375,115.0,-53.0,23.0,78.0,970.0,114.0,1256,1119.3108674956607,676.2328219444669,
75,4.848484754562378,0.062006235122680664,16.127410380931508,15.468750299653044,101530.25,122.0,898.0,158.0,-27.75,-55.0,-6.0,10.75,-1.6875,-6.125,91.5625,4.1875,-83.875,-0.42913818359375,0.5125732421875,0.53314208984375,-0.5185546875,50.0,-73.0,53.0,72.0,972.0,104.0,1322,1159.8486939965287,673.9865561430702,
76,4.910490989685059,0.062006235122680664,16.127410380931508,15.477067397057656,101530.25,147.0,912.0,156.0,-26.5625,-56.0625,-3.1875,7.625,-1.0625,-2.5625,91.5625,4.1875,-84.3125,-0.4312744140625,0.5147705078125,0.5311279296875,-0.51666259765625,74.0,-60.0,59.0,72.0,973.0,96.0,1419,1211.678955197223,690.1766897822101,
77,4.975497484207153,0.06500649452209473,15.38307837319416,15.475839399860527,101530.25,95.0,1025.0,269.0,-27.0,-55.25,-4.375,7.5625,1.4375,2.375,91.1875,4.4375,-84.3125,-0.43109130859375,0.51495361328125,0.529296875,-0.5184326171875,19.0,52.0,173.0,76.0,972.0,95.0,1419,1253.1431641577785,684.9437384162616,
78,5.036503553390503,0.06100606918334961,16.391811722774136,15.486934372853069,101530.25,74.0,828.0,60.0,-27.0,-55.75,-4.375,20.3125,-10.125,-3.875,91.125,4.6875,-85.5,-0.43487548828125,0.5233154296875,0.52392578125,-0.51239013671875,-15.0,-150.0,-27.0,78.0,974.0,72.0,1429,1288.3145313262228,674.1016074404051,
79,5.103510141372681,0.06700658798217773,14.923905695153106,15.479542082138693,101530.25,64.0,891.0,91.0,-25.875,-55.75,-1.5625,6.875,-5.25,-19.8125,92.25,3.75,-86.25,-0.44049072265625,0.52313232421875,0.526123046875,-0.5054931640625,0.0,-84.0,27.0,64.0,976.0,63.0,1485,1327.6516250609782,665.3977544182534,
80,5.1665167808532715,0.06300663948059082,15.871343214678982,15.484320170307793,101530.25,11.0,992.0,100.0,-26.5625,-54.5625,-1.5625,-13.625,0.9375,-9.5625,93.25,2.9375,-85.8125,-0.44110107421875,0.517822265625,0.53326416015625,-0.5029296875,2.0,33.0,35.0,49.0,976.0,73.0,1588,1379.7213000487827,681.4995472572513,
81,5.231523036956787,0.06500625610351562,15.383134792559122,15.48306285335948,101521.25,4.0,1012.0,-18.0,-25.5,-55.6875,-2.75,-11.5625,-10.625,-12.25,94.125,2.3125,-85.25,-0.43994140625,0.51422119140625,0.5400390625,-0.5003662109375,-33.0,35.0,-101.0,38.0,976.0,82.0,1607,1425.1770400390262,683.2747700680698,
82,5.296529531478882,0.06500649452209473,15.38307837319416,15.481835702538639,101521.25,-186.0,1074.0,-9.0,-24.375,-56.375,-3.5625,-12.4375,2.6875,-5.25,95.125,1.5625,-84.4375,-0.439208984375,0.50860595703125,0.5467529296875,-0.49945068359375,-213.0,98.0,-103.0,27.0,975.0,94.0,1607,1461.541632031221,670.887229923779,
83,5.358536005020142,0.062006473541259766,16.127348370079286,15.489305273351059,101521.25,-19.0,1112.0,48.0,-23.5625,-55.375,-3.5625,-16.0625,9.9375,6.3125,94.625,1.6875,-83.4375,-0.4361572265625,0.50286865234375,0.548583984375,-0.50592041015625,-48.0,138.0,-62.0,29.0,973.0,111.0,1729,1515.033305624977,690.0663924259084,
84,5.426542520523071,0.06800651550292969,14.704473425886972,15.479469603769571,101521.25,-14.0,977.0,-39.0,-24.0,-55.6875,-5.1875,-1.125,4.8125,-3.4375,94.125,1.8125,-83.0,-0.43548583984375,0.49969482421875,0.54827880859375,-0.510009765625,-46.0,4.0,-158.0,31.0,972.0,119.0,1752,1562.4266444999816,690.7491623884738,
85,5.484548330307007,0.05800580978393555,17.239652436969262,15.498085691085883,101521.25,-48.0,893.0,20.0,-23.5625,-56.0625,-4.375,6.75,3.375,-6.0625,94.25,1.5625,-83.125,-0.437744140625,0.49884033203125,0.5484619140625,-0.5086669921875,-75.0,-80.0,-96.0,26.0,973.0,116.0,1809,1611.7413155999855,706.6910251303783,
86,5.5465545654296875,0.062006235122680664,16.127410380931508,15.505121059480219,101521.25,44.0,885.0,89.0,-24.0,-55.6875,-5.1875,3.5,4.0,-1.9375,94.3125,1.1875,-83.375,-0.44171142578125,0.4974365234375,0.5474853515625,-0.5076904296875,23.0,-88.0,-23.0,21.0,973.0,112.0,1859,1661.1930524799884,715.7747680887057,
87,5.608560800552368,0.062006235122680664,16.127410380931508,15.512000866859045,101524.5,-21.0,859.0,123.0,-22.5,-56.75,-5.1875,-4.0,-9.1875,-3.0625,94.9375,0.9375,-83.4375,-0.4412841796875,0.4984130859375,0.550048828125,-0.5042724609375,-37.0,-114.0,11.0,16.0,974.0,111.0,1864,1701.7544419839908,709.6123086950206,
88,5.671566963195801,0.06300616264343262,15.871463330646657,15.515994181335378,101524.5,12.0,886.0,142.0,-22.0625,-55.75,-5.5625,-1.6875,-11.125,-4.8125,95.625,0.9375,-83.3125,-0.43817138671875,0.4998779296875,0.5535888671875,-0.50164794921875,-4.0,-86.0,28.0,16.0,973.0,114.0,1864,1734.2035535871926,690.1525663177464,
89,5.736573696136475,0.06500673294067383,15.383021954243045,15.514487342843799,101524.5,-22.0,882.0,182.0,-21.75,-57.1875,-4.0,-3.9375,-9.0,-2.0625,96.3125,0.8125,-83.0625,-0.4349365234375,0.5008544921875,0.55767822265625,-0.4990234375,-37.0,-91.0,64.0,14.0,973.0,117.0,2005,1788.362842869754,704.4506632919562,
90,5.80157995223999,0.06500625610351562,15.383134792559122,15.513015547644223,101524.5,15.0,910.0,117.0,-21.0625,-56.875,-4.375,-4.125,-3.9375,11.4375,96.4375,1.0625,-82.6875,-0.4306640625,0.5009765625,0.55999755859375,-0.5,-2.0,-62.0,-6.0,18.0,972.0,124.0,1939,1818.4902742958034,680.3510308208104,
91,5.870587110519409,0.06900715827941895,14.491250254805019,15.501004973921363,101524.5,-18.0,958.0,213.0,-21.75,-56.5,-5.1875,-20.1875,-1.5,0.75,96.25,1.4375,-81.9375,-0.4248046875,0.4996337890625,0.562255859375,-0.50372314453125,-43.0,-12.0,76.0,25.0,970.0,137.0,1972,1849.192219436643,656.8068847732495,
92,5.940593957901001,0.0700068473815918,14.28431699758199,15.486666931282153,101524.5,122.0,1027.0,207.0,-21.75,-56.5,-5.5625,-16.0625,-2.375,10.3125,95.75,2.125,-80.6875,-0.41595458984375,0.496337890625,0.565185546875,-0.51104736328125,85.0,60.0,49.0,36.0,967.0,158.0,2066,1892.5537755493144,653.0652175981085,
93,6.007600545883179,0.06700658798217773,14.923905695153106,15.480390097462456,101521.25,127.0,1011.0,61.0,-23.25,-56.1875,-6.75,-3.8125,-10.625,0.8125,95.625,2.625,-80.1875,-0.409423828125,0.4976806640625,0.5667724609375,-0.51324462890625,72.0,49.0,-119.0,46.0,965.0,166.0,2188,1951.6430204394514,675.9429276721189,
94,6.076607704162598,0.06900715827941895,14.491250254805019,15.469157229881423,101521.25,13.0,1090.0,80.0,-23.5625,-56.5,-6.375,-19.0,-6.6875,4.375,96.375,2.8125,-79.25,-0.40045166015625,0.49658203125,0.57415771484375,-0.51318359375,-39.0,131.0,-91.0,48.0,962.0,182.0,2268,2014.9144163515612,700.03679811823,
95,6.142614126205444,0.06600642204284668,15.150040996781662,15.465728116424199,101521.25,63.0,1136.0,117.0,-23.25,-55.75,-6.75,-29.875,7.125,14.625,95.75,3.375,-77.6875,-0.39202880859375,0.490234375,0.57745361328125,-0.5220947265625,57.0,211.0,-45.0,58.0,956.0,207.0,2249,2061.731533081249,700.9612420869953,
96,6.207620620727539,0.06500649452209473,15.38307837319416,15.464862604433566,101521.25,120.0,1090.0,143.0,-24.375,-55.6875,-8.0,-6.4375,3.25,6.5625,95.0,3.8125,-76.8125,-0.3870849609375,0.48626708984375,0.57763671875,-0.5291748046875,54.0,138.0,-79.0,66.0,952.0,222.0,2249,2099.1852264649992,688.4804279470773,
97,6.276627779006958,0.06900715827941895,14.491250254805019,15.454158413603846,101521.25,70.0,915.0,118.0,-24.375,-55.25,-9.5625,8.5625,-2.0625,-0.4375,94.875,3.9375,-77.1875,-0.388427734375,0.48858642578125,0.575439453125,-0.5284423828125,14.0,-14.0,-69.0,67.0,953.0,218.0,2333,2145.9481811719993,687.3977530836946,
98,6.343634366989136,0.06700658798217773,14.923905695153106,15.4485574562699,101521.25,17.0,896.0,148.0,-24.0,-55.6875,-8.375,17.5,-1.3125,-4.0,95.0625,3.8125,-78.0625,-0.392333984375,0.492919921875,0.57305908203125,-0.52410888671875,-50.0,-69.0,-51.0,65.0,957.0,202.0,2460,2208.7585449375993,712.3955723269328,
99,6.404640436172485,0.06100606918334961,16.391811722774136,15.457542228422735,101521.5,49.0,938.0,215.0,-24.75,-55.25,-8.375,15.75,5.5,-2.25,95.0625,3.6875,-78.8125,-0.39666748046875,0.4962158203125,0.5699462890625,-0.5211181640625,-13.0,-21.0,25.0,63.0,960.0,189.0,2413,2249.6068359500796,708.1137646416059,
100,6.465646505355835,0.06100606918334961,16.391811722774136,15.466357450436664,101521.5,103.0,942.0,242.0,-24.0,-55.6875,-5.5625,16.125,15.375,6.3125,93.9375,3.75,-80.0,-0.40618896484375,0.4984130859375,0.56011962890625,-0.5223388671875,11.0,-41.0,58.0,63.0,962.0,174.0,2422,2284.0854687600636,693.8191139254374,
101,6.532653331756592,0.06700682640075684,14.923852594050105,15.460792861763828,101521.5,128.0,864.0,151.0,-23.5625,-55.6875,-5.5625,14.9375,13.875,20.0625,92.5,4.25,-80.875,-0.4117431640625,0.50146484375,0.54974365234375,-0.526123046875,126.0,-77.0,39.0,73.0,965.0,154.0,2540,2335.268375008051,700.8218173508985,
102,6.595659494400024,0.06300616264343262,15.871463330646657,15.464715861484667,101521.5,178.0,873.0,139.0,-24.0,-56.0625,-6.0,11.0,9.6875,-3.0,91.625,4.3125,-81.625,-0.4185791015625,0.5025634765625,0.54266357421875,-0.5269775390625,104.0,-94.0,-2.0,73.0,967.0,141.0,2591,2386.414700006441,711.9163377867368,
103,6.656665563583374,0.06100606918334961,16.391811722774136,15.473212378804515,101521.5,14.0,941.0,148.0,-24.0,-56.0625,-5.1875,-5.625,1.5625,-14.375,92.125,3.5,-81.9375,-0.42462158203125,0.5,0.543701171875,-0.5235595703125,-46.0,-27.0,11.0,60.0,969.0,136.0,2633,2435.731760005153,721.5643002300274,
104,6.719671726226807,0.06300616264343262,15.871463330646657,15.476946529112295,101521.5,42.0,1092.0,201.0,-23.5625,-56.0625,-5.1875,-9.25,9.0625,5.5625,92.0625,3.1875,-81.1875,-0.42449951171875,0.4937744140625,0.54620361328125,-0.52685546875,-12.0,124.0,52.0,55.0,967.0,148.0,2666,2481.7854080041225,722.5017487528402,
105,6.7876787185668945,0.06800699234008789,14.704370324145813,15.469205947061827,101526.5,-16.0,1021.0,107.0,-24.0,-55.6875,-6.0,-14.3125,8.0,8.0,91.375,3.3125,-80.625,-0.423583984375,0.4896240234375,0.54559326171875,-0.5321044921875,-74.0,54.0,-50.0,59.0,965.0,161.0,2713,2528.0283264032983,718.2488735786299,
106,6.852685213088989,0.06500649452209473,15.38307837319416,15.468388916732149,101526.5,171.0,1103.0,176.0,-24.375,-54.875,-6.375,-6.25,-7.25,-2.25,91.0625,4.3125,-79.375,-0.41119384765625,0.4888916015625,0.54913330078125,-0.53887939453125,98.0,142.0,-3.0,73.0,961.0,180.0,2717,2565.8226611226387,704.5633075258016,
107,6.919692039489746,0.06700682640075684,14.923852594050105,15.463115900153573,101526.5,-131.0,927.0,41.0,-24.0,-54.5625,-7.1875,5.0625,2.6875,-18.3125,92.4375,3.4375,-79.6875,-0.414306640625,0.48931884765625,0.5540771484375,-0.53094482421875,-190.0,-36.0,-133.0,59.0,963.0,174.0,2816,2615.8581288981113,708.7791713287713,
108,6.985698461532593,0.06600642204284668,15.150040996781662,15.460157720049352,101526.5,6.0,987.0,211.0,-24.0,-56.375,-6.0,6.125,4.625,9.0,92.125,3.6875,-79.8125,-0.41375732421875,0.49072265625,0.55242919921875,-0.53179931640625,-56.0,24.0,38.0,63.0,963.0,172.0,2872,2667.0865031184894,715.5124511596143,
109,7.0517051219940186,0.06600666046142578,15.149986274254836,15.457254396533521,101526.5,174.0,801.0,222.0,-24.375,-55.6875,-6.75,14.5625,-6.4375,2.75,91.875,4.375,-80.6875,-0.412841796875,0.49908447265625,0.54754638671875,-0.52978515625,99.0,-163.0,64.0,75.0,964.0,157.0,2985,2730.6692024947915,740.2889083267578,
110,7.12171196937561,0.0700068473815918,14.28431699758199,15.445724352938715,101521.5,-46.0,812.0,137.0,-24.375,-55.6875,-5.1875,18.375,-15.1875,-10.1875,93.4375,3.875,-81.9375,-0.41583251953125,0.5074462890625,0.549560546875,-0.51727294921875,-113.0,-156.0,0.0,66.0,968.0,136.0,2989,2782.3353619958334,740.0615975301336,
111,7.188718795776367,0.06700682640075684,14.923852594050105,15.440859929757792,101521.5,-79.0,914.0,224.0,-23.5625,-56.375,-4.375,4.8125,-8.125,-2.75,94.625,3.8125,-82.5625,-0.41357421875,0.51446533203125,0.55224609375,-0.50927734375,-145.0,-55.0,98.0,65.0,970.0,126.0,3050,2835.8682895966667,745.9471898213995,
112,7.258725881576538,0.0700070858001709,14.284268350412592,15.42970513382639,101521.5,20.0,964.0,162.0,-23.5625,-55.25,-3.1875,2.375,-2.875,9.75,94.6875,4.125,-82.75,-0.41119384765625,0.51788330078125,0.5518798828125,-0.50811767578125,-50.0,-6.0,39.0,70.0,970.0,122.0,3116,2891.8946316773336,751.3820013364855,
113,7.324732303619385,0.06600642204284668,15.150040996781662,15.42718495584652,101521.5,14.0,951.0,78.0,-24.75,-54.875,-3.1875,-19.25,8.0625,4.0625,94.375,4.5,-82.4375,-0.40826416015625,0.51788330078125,0.55145263671875,-0.5108642578125,-62.0,-18.0,-49.0,77.0,969.0,127.0,3135,2940.515705341867,749.9049271353592,
114,7.394739389419556,0.0700070858001709,14.284268350412592,15.41636479618362,101521.5,298.0,1078.0,235.0,-24.375,-55.6875,-2.75,-12.4375,-9.375,9.4375,93.3125,5.4375,-80.5,-0.3961181640625,0.5113525390625,0.55487060546875,-0.523193359375,205.0,115.0,75.0,93.0,962.0,160.0,3233,2999.012564273494,758.472917485382,
115,7.4607460498809814,0.06600666046142578,15.149986274254836,15.414008093980701,101521.5,157.0,974.0,107.0,-25.875,-54.5625,-5.5625,-11.625,-14.6875,-13.0625,94.375,5.3125,-80.125,-0.39093017578125,0.51202392578125,0.56134033203125,-0.51953125,21.0,27.0,-53.0,89.0,961.0,169.0,3332,3065.610051418795,783.5207273519617,
116,7.526752471923828,0.06600642204284668,15.150040996781662,15.411693214663474,101515.75,107.0,1174.0,226.0,-26.25,-54.875,-4.375,-10.5,-7.4375,-9.6875,96.125,4.625,-78.875,-0.38385009765625,0.50653076171875,0.57452392578125,-0.5157470703125,10.0,168.0,16.0,79.0,959.0,188.0,3313,3115.0880411350363,780.128011880705,
117,7.588758707046509,0.062006235122680664,16.127410380931508,15.417541197002372,101515.75,7.0,891.0,68.0,-24.75,-54.5625,-6.375,19.5,-4.3125,9.5,96.75,4.375,-79.625,-0.38677978515625,0.5107421875,0.573974609375,-0.50994873046875,85.0,-95.0,-94.0,75.0,961.0,175.0,3439,3179.870432908029,806.5924324507683,
118,7.653765439987183,0.06500673294067383,15.383021954243045,15.417248010176493,101515.75,147.0,850.0,96.0,-25.0625,-55.25,-6.75,27.75,-0.4375,-1.9375,96.4375,4.6875,-80.875,-0.3905029296875,0.51824951171875,0.5675048828125,-0.50677490234375,67.0,-114.0,-58.0,80.0,965.0,154.0,3439,3231.6963463264237,805.6571055970777,
119,7.713771104812622,0.06000566482543945,16.66509325259653,15.426955037044838,101515.75,198.0,919.0,221.0,-24.75,-55.25,-4.375,31.3125,-11.3125,1.0625,96.6875,4.75,-82.5,-0.395263671875,0.5281982421875,0.56158447265625,-0.4993896484375,116.0,-48.0,94.0,82.0,968.0,126.0,3608,3306.957077061139,850.5141046326287,
120,7.780777931213379,0.06700682640075684,14.923852594050105,15.422622398540362,101515.75,-16.0,950.0,235.0,-24.75,-54.25,-2.375,12.5625,3.1875,-3.5625,97.6875,4.25,-84.4375,-0.403076171875,0.5379638671875,0.55767822265625,-0.48699951171875,-99.0,-32.0,163.0,72.0,973.0,94.0,3655,3376.5656616489114,869.3455197362041,
121,7.844784259796143,0.06400632858276367,15.623455088615893,15.424261011244731,101515.75,44.0,989.0,199.0,-24.375,-54.25,0.0,6.4375,13.375,5.0625,96.875,4.5625,-85.0625,-0.406494140625,0.54034423828125,0.551513671875,-0.488525390625,-33.0,15.0,115.0,78.0,973.0,83.0,3800,3461.2525293191293,914.7211151267044,
122,7.911791086196899,0.06700682640075684,14.923852594050105,15.420022934230927,101514.75,-203.0,994.0,91.0,-24.75,-54.5625,0.0,-21.5,30.9375,-7.625,96.125,4.125,-85.25,-0.414794921875,0.53546142578125,0.5472412109375,-0.49163818359375,-275.0,19.0,10.0,71.0,974.0,80.0,3865,3542.0020234553035,943.7583583672717,
123,7.980798006057739,0.06900691986083984,14.491300322005555,15.411992623624625,101514.75,162.0,804.0,-4.0,-24.75,-54.1875,-1.5625,3.75,8.75,2.6875,93.3125,5.3125,-84.0,-0.41192626953125,0.5277099609375,0.54034423828125,-0.509765625,18.0,-241.0,-154.0,91.0,971.0,101.0,3959,3625.4016187642433,970.2393807661018,
124,8.043804407119751,0.06300640106201172,15.871403272435558,15.415591146180137,101514.75,223.0,1063.0,174.0,-25.875,-53.0625,-3.0625,-53.25,2.1875,8.6875,93.0,5.5,-82.0,-0.4033203125,0.5181884765625,0.54730224609375,-0.5189208984375,167.0,199.0,83.0,94.0,966.0,135.0,4011,3702.5212950113946,995.6151908853125,
125,8.106810569763184,0.06300616264343262,15.871463330646657,15.41913418653515,101514.75,-1.0,949.0,45.0,-25.5,-53.5,-5.0625,-1.4375,-22.8125,-31.0625,94.6875,4.875,-80.75,-0.39581298828125,0.513427734375,0.56024169921875,-0.51568603515625,-85.0,-14.0,-111.0,84.0,964.0,156.0,4053,3772.617036009116,1007.3058700847653,
126,8.171817064285278,0.06500649452209473,15.38307837319416,15.418847363908798,101514.75,18.0,900.0,80.0,-25.0625,-53.75,-5.5,-2.5625,-21.3125,3.75,96.5625,4.25,-80.8125,-0.39361572265625,0.51556396484375,0.56817626953125,-0.50640869140625,-55.0,-64.0,-74.0,73.0,965.0,155.0,4039,3825.893628807293,988.5310833234,
127,8.236823558807373,0.06500649452209473,15.38307837319416,15.418565068594063,101514.75,-93.0,832.0,87.0,-24.0,-53.875,-3.875,9.9375,-9.5,-13.875,97.9375,4.125,-81.375,-0.39190673828125,0.52252197265625,0.5721435546875,-0.49603271484375,-161.0,-134.0,-56.0,68.0,967.0,144.0,4161,3892.9149030458348,992.7773264193424,
128,8.301830053329468,0.06500649452209473,15.38307837319416,15.418287194239216,101509.5,8.0,905.0,177.0,-23.5625,-53.0625,-3.875,-4.0,-9.0,9.1875,98.6875,4.1875,-81.875,-0.38897705078125,0.52752685546875,0.57318115234375,-0.4918212890625,-63.0,-62.0,5.0,69.0,968.0,137.0,4268,3967.9319224366677,1008.8988626386691,
129,8.366836786270142,0.06500673294067383,15.383021954243045,15.418013198451192,101509.5,42.0,961.0,155.0,-24.375,-53.875,-2.6875,-11.3125,-10.25,5.1875,98.625,5.0,-81.4375,-0.37982177734375,0.5311279296875,0.57440185546875,-0.49365234375,-43.0,-4.0,10.0,86.0,966.0,144.0,4395,4053.3455379493344,1039.4009286370647,
130,8.437843561172485,0.07100677490234375,14.083163210486731,15.406780068571901,101509.5,255.0,1214.0,303.0,-25.875,-53.375,-3.0625,-34.5,-8.8125,10.6875,98.3125,6.0625,-79.1875,-0.36260986328125,0.52484130859375,0.582763671875,-0.50347900390625,151.0,256.0,121.0,103.0,957.0,182.0,4428,4128.276430359468,1040.987234505291,
131,8.503850221633911,0.06600666046142578,15.149986274254836,15.404786841933577,101509.5,-33.0,1147.0,166.0,-26.25,-51.5625,-5.5,-19.25,21.375,0.9375,98.9375,5.0625,-77.75,-0.36279296875,0.5126953125,0.5916748046875,-0.50543212890625,-120.0,192.0,-40.0,87.0,954.0,207.0,4568,4216.221144287574,1070.1246319451702,
132,8.567856550216675,0.06400632858276367,15.623455088615893,15.406420407057563,101509.5,311.0,1067.0,249.0,-25.5,-52.75,-8.0,4.125,27.625,4.0,96.6875,5.5625,-76.875,-0.3646240234375,0.5042724609375,0.58502197265625,-0.52008056640625,215.0,117.0,28.0,95.0,950.0,221.0,4643,4301.57691543006,1096.4673744505333,
133,8.63386344909668,0.06600689888000488,15.149931552123329,15.404459519673683,101510.75,90.0,751.0,-39.0,-25.0625,-53.5,-8.375,33.25,15.6875,13.125,95.3125,5.5,-78.4375,-0.377685546875,0.5076904296875,0.5736083984375,-0.5201416015625,-22.0,-185.0,-223.0,93.0,956.0,195.0,4643,4369.861532344048,1090.2713642364688,
134,8.698869705200195,0.06500625610351562,15.383134792559122,15.404300160961673,101510.75,203.0,871.0,94.0,-26.25,-53.5,-6.375,41.75,2.25,0.0,94.25,6.0,-80.625,-0.3873291015625,0.51904296875,0.5584716796875,-0.518310546875,99.0,-90.0,-63.0,103.0,962.0,157.0,4985,4492.8892258752385,1170.4993870936175,
135,8.762876033782959,0.06400632858276367,15.623455088615893,15.405900925625684,101510.75,144.0,1004.0,253.0,-27.375,-53.0625,-4.375,33.8125,-0.9375,-13.3125,94.375,5.6875,-83.125,-0.3997802734375,0.5301513671875,0.54876708984375,-0.5079345703125,46.0,35.0,137.0,97.0,968.0,116.0,5182,4630.7113807001915,1268.7752729966478,
136,8.830883026123047,0.06800699234008789,14.704370324145813,15.400498409693805,101510.75,181.0,957.0,171.0,-27.0,-52.0,-2.375,15.6875,5.0625,7.9375,94.4375,5.3125,-84.75,-0.40936279296875,0.53607177734375,0.54241943359375,-0.50079345703125,26.0,-30.0,80.0,91.0,972.0,88.0,5046,4713.769104560153,1264.028898688735,
137,8.89488935470581,0.06400632858276367,15.623455088615893,15.402102773489883,101510.75,-118.0,869.0,-124.0,-26.5625,-53.1875,-1.1875,-8.625,20.25,-22.0625,94.625,4.5,-85.625,-0.41961669921875,0.53485107421875,0.5391845703125,-0.49713134765625,-196.0,-105.0,-199.0,77.0,974.0,74.0,5074,4785.815283648123,1250.187033148589,
138,8.959896087646484,0.06500673294067383,15.383021954243045,15.401964336424438,101510.75,347.0,1081.0,404.0,-26.5625,-52.875,-0.6875,-4.0,12.875,37.375,92.375,5.625,-83.8125,-0.412353515625,0.526123046875,0.536865234375,-0.51470947265625,250.0,111.0,227.0,96.0,970.0,104.0,5215,4871.652226918499,1257.2114881150608,
139,9.02490234375,0.06500625610351562,15.383134792559122,15.40182870746091,101513.0,301.0,1229.0,310.0,-27.25,-53.1875,-3.875,-46.8125,3.625,43.75,90.5625,6.625,-82.1875,-0.4046630859375,0.5185546875,0.5352783203125,-0.52996826171875,187.0,264.0,178.0,114.0,964.0,132.0,5341,4965.5217815348,1275.8911404615592,
140,9.088908672332764,0.06400632858276367,15.623455088615893,15.40338945490444,101513.0,72.0,937.0,43.0,-28.0625,-51.375,-5.0,22.25,-18.4375,-31.9375,91.375,6.3125,-82.5,-0.40533447265625,0.52081298828125,0.5377197265625,-0.52471923828125,-67.0,-64.0,-158.0,108.0,966.0,126.0,5435,5059.41742522784,1294.9994636408928,
141,9.148914813995361,0.060006141662597656,16.664960823890276,15.41166388218067,101513.0,-19.0,888.0,15.0,-29.1875,-52.875,-5.5,21.5,-7.625,1.375,92.75,5.4375,-83.75,-0.4122314453125,0.5252685546875,0.538818359375,-0.51361083984375,-112.0,-82.0,-90.0,93.0,970.0,106.0,5561,5159.733940182272,1332.6765964472847,
142,9.211921215057373,0.06300640106201172,15.871403272435558,15.414808342899576,101513.0,-95.0,782.0,37.0,-27.75,-52.5,-2.6875,28.3125,3.0,-3.1875,92.875,5.1875,-85.375,-0.4202880859375,0.5322265625,0.53271484375,-0.5062255859375,-184.0,-191.0,-40.0,89.0,973.0,78.0,5810,5289.787152145817,1405.8216341974535,
143,9.274927377700806,0.06300616264343262,15.871463330646657,15.41791047807091,101513.0,129.0,792.0,44.0,-27.75,-53.1875,-2.25,12.125,-6.875,-4.25,92.1875,6.0,-86.625,-0.42083740234375,0.5421142578125,0.52410888671875,-0.5042724609375,-48.0,-198.0,-54.0,103.0,973.0,56.0,5617,5355.229721716654,1369.1064050983912,
144,9.337933778762817,0.06300640106201172,15.871403272435558,15.420970357221634,101513.0,88.0,900.0,77.0,-28.0625,-52.5,-1.1875,-15.875,-9.8125,3.3125,92.4375,6.1875,-86.3125,-0.417236328125,0.5426025390625,0.52655029296875,-0.50421142578125,0.0,-65.0,52.0,105.0,972.0,61.0,5632,5410.583777373324,1320.0504185977366,
145,9.402940034866333,0.06500625610351562,15.383134792559122,15.420708784947733,101503.5,87.0,1172.0,175.0,-29.1875,-53.375,-0.6875,-51.25,2.9375,8.375,92.5,6.5,-84.125,-0.40521240234375,0.5343017578125,0.53607177734375,-0.5128173828125,-24.0,203.0,77.0,111.0,969.0,98.0,5791,5486.667021898659,1305.08525733681,
146,9.466946601867676,0.06400656700134277,15.623396892681672,15.422079170827535,101503.5,-29.0,1083.0,79.0,-30.6875,-51.5625,-3.5,-27.125,11.25,-16.1875,92.125,6.3125,-82.125,-0.400146484375,0.521484375,0.5428466796875,-0.52276611328125,-138.0,118.0,-54.0,108.0,965.0,133.0,5955,5580.333617518928,1320.9157714993066,
147,9.527952671051025,0.06100606918334961,16.391811722774136,15.42828822467109,101503.5,154.0,792.0,-35.0,-30.25,-50.1875,-9.5,23.0,16.75,14.125,87.8125,6.875,-80.0625,-0.40570068359375,0.50006103515625,0.5306396484375,-0.5511474609375,35.0,-166.0,-203.0,118.0,959.0,167.0,,5580.333617518928,1320.9157714993066,
148,9.674967527389526,0.14701485633850098,6.802033650922359,15.297208965406519,101503.5,272.0,827.0,-27.0,-29.875,-51.375,-9.5,35.875,5.5625,-4.625,86.375,7.25,-81.75,-0.41619873046875,0.50592041015625,0.51727294921875,-0.5506591796875,102.0,-131.0,-184.0,122.0,963.0,133.0,6405,5745.2668940151425,1301.0123640377894,
149,9.736973524093628,0.06200599670410156,16.127472392260604,15.302496163854954,101503.5,175.0,1056.0,170.0,-30.25,-50.5625,-7.0,9.1875,5.8125,10.625,86.1875,7.0,-82.875,-0.4246826171875,0.50927734375,0.51080322265625,-0.547119140625,125.0,127.0,98.0,121.0,965.0,118.0,6442,5884.613515212115,1395.6420062649076,
150,9.798979759216309,0.062006235122680664,16.127410380931508,15.30771607716807,101506.75,70.0,958.0,84.0,-31.0625,-51.375,-7.0,28.4375,5.8125,-12.5,85.9375,6.25,-84.625,-0.4390869140625,0.5106201171875,0.50396728515625,-0.5408935546875,-36.0,-11.0,-6.0,107.0,970.0,91.0,6494,6006.490812169693,1452.6343240537678,
151,9.86098599433899,0.062006235122680664,16.127410380931508,15.312870344475321,101506.75,-171.0,1131.0,68.0,-28.75,-50.1875,-5.875,-20.625,32.875,-2.375,85.0,5.3125,-85.3125,-0.454833984375,0.50262451171875,0.4969482421875,-0.5418701171875,-262.0,158.0,-10.0,90.0,973.0,79.0,6555,6116.1926497357545,1484.291547045408,
152,9.925992488861084,0.06500649452209473,15.38307837319416,15.313330145128953,101506.75,204.0,798.0,-175.0,-28.75,-50.5625,-5.875,23.125,9.75,-10.125,82.5625,6.625,-84.75,-0.4512939453125,0.50103759765625,0.4874267578125,-0.5546875,90.0,-171.0,-264.0,113.0,970.0,88.0,6705,6233.954119788604,1517.0157846574211,
153,9.988998889923096,0.06300640106201172,15.871403272435558,15.316850235547271,101506.75,650.0,1352.0,361.0,-28.375,-50.1875,-7.375,-32.25,-5.4375,19.8125,81.0,7.75,-81.5625,-0.43438720703125,0.48876953125,0.491455078125,-0.57525634765625,518.0,391.0,219.0,132.0,961.0,141.0,6733,6333.763295830884,1523.7253745173334,
154,10.052005052566528,0.06300616264343262,15.871463330646657,15.32032656118492,101506.75,-162.0,816.0,-134.0,-29.875,-49.5,-10.25,8.4375,-11.625,-40.5625,83.5625,5.3125,-82.375,-0.44769287109375,0.4832763671875,0.50140380859375,-0.5609130859375,-254.0,-151.0,-264.0,91.0,967.0,129.0,6719,6410.810636664708,1493.6382415423873,
155,10.119011878967285,0.06700682640075684,14.923852594050105,15.3177011603448,101506.75,44.0,903.0,80.0,-27.0,-51.0,-9.0,-0.25,-7.125,-0.5625,84.25,4.75,-82.5,-0.45013427734375,0.482421875,0.5042724609375,-0.55706787109375,-37.0,-65.0,-46.0,81.0,968.0,126.0,6761,6480.848509331767,1448.797906156552,
156,10.187018632888794,0.06800675392150879,14.704421874835665,15.313607015143168,101502.0,31.0,773.0,92.0,-27.375,-49.875,-8.6875,20.0,-11.75,-8.4375,84.9375,4.25,-83.4375,-0.4556884765625,0.4853515625,0.5040283203125,-0.55029296875,-41.0,-198.0,-18.0,73.0,971.0,111.0,6784,6541.478807465414,1393.0714637563185,
157,10.249024629592896,0.06200599670410156,16.127472392260604,15.318530852846262,101502.0,38.0,786.0,87.0,-27.375,-49.5,-8.25,8.4375,-11.8125,-3.5,85.75,3.875,-84.3125,-0.4593505859375,0.48956298828125,0.50433349609375,-0.5430908203125,-28.0,-187.0,-9.0,67.0,973.0,96.0,6892,6611.583045972331,1366.824734490762,
158,10.3150315284729,0.06600689888000488,15.149931552123329,15.317451969377672,101502.0,193.0,840.0,-47.0,-25.875,-50.5625,-7.5,0.5625,-17.75,13.0625,86.0625,4.0625,-84.6875,-0.45819091796875,0.49432373046875,0.504150390625,-0.5399169921875,123.0,-133.0,-136.0,70.0,974.0,89.0,7356,6760.466436777865,1455.6995790368724,
159,10.37603759765625,0.06100606918334961,16.391811722774136,15.323768683713626,101502.0,-16.0,1230.0,114.0,-26.25,-50.5625,-6.6875,-56.0625,-4.0625,-0.625,86.4375,4.0625,-83.125,-0.44976806640625,0.4881591796875,0.51220703125,-0.5450439453125,-86.0,259.0,-2.0,70.0,971.0,116.0,7061,6820.573149422292,1408.6554128274183,
160,10.438043594360352,0.06200599670410156,16.127472392260604,15.32854299309955,101502.0,156.0,1280.0,30.0,-25.875,-49.0625,-8.25,-8.9375,-12.1875,-2.9375,85.625,5.1875,-80.625,-0.43194580078125,0.4822998046875,0.5181884765625,-0.55877685546875,66.0,316.0,-127.0,89.0,963.0,158.0,7070,6870.458519537834,1348.2423644762873,
161,10.500049829483032,0.062006235122680664,16.127410380931508,15.333260566814548,101502.0,-43.0,1290.0,47.0,-27.75,-49.5,-8.5625,-56.375,10.625,45.75,85.5,5.125,-78.8125,-0.425048828125,0.472412109375,0.52410888671875,-0.56695556640625,-131.0,332.0,-141.0,88.0,958.0,188.0,7173,6930.966815630268,1311.002340282018,
162,10.56005573272705,0.060005903244018555,16.665027037980316,15.340828126308079,101501.5,166.0,903.0,1.0,-25.875,-48.0,-9.875,13.875,4.6875,-24.375,83.75,6.3125,-77.6875,-0.4210205078125,0.46746826171875,0.51806640625,-0.5794677734375,6.0,-65.0,-263.0,103.0,953.0,204.0,7211,6986.973452504214,1273.237318034882,
163,10.625062465667725,0.06500673294067383,15.383021954243045,15.341086278475482,101501.5,273.0,791.0,62.0,-27.75,-48.5,-11.5,5.9375,-8.5,0.9375,84.25,5.4375,-78.6875,-0.4267578125,0.46978759765625,0.5185546875,-0.57293701171875,164.0,-155.0,-115.0,93.0,957.0,190.0,7267,7042.978762003371,1232.066676789365,
164,10.688068628311157,0.06300616264343262,15.871463330646657,15.344212851102732,101501.5,137.0,856.0,128.0,-26.25,-48.75,-11.875,13.625,-14.8125,-32.125,85.8125,4.4375,-79.5625,-0.4327392578125,0.4718017578125,0.52313232421875,-0.5626220703125,-56.0,-17.0,-8.0,76.0,961.0,176.0,7328,7099.983009602698,1199.3340916568104,
165,10.749074935913086,0.06100630760192871,16.391747661980858,15.350158128373304,101501.5,-84.0,1045.0,285.0,-26.25,-48.75,-10.6875,20.625,-2.3125,-16.375,87.4375,3.25,-80.375,-0.439453125,0.47271728515625,0.5281982421875,-0.5517578125,-159.0,57.0,92.0,56.0,965.0,163.0,7421,7164.1864076821585,1184.6412725271514,
166,10.814081192016602,0.06500625610351562,15.383134792559122,15.350356359682968,101501.5,114.0,838.0,178.0,-23.5625,-49.5625,-9.5,19.0,9.1875,16.125,86.375,3.5,-81.5625,-0.4476318359375,0.47607421875,0.51824951171875,-0.55169677734375,54.0,-130.0,35.0,60.0,968.0,143.0,7553,7241.949126145728,1185.8005832705276,
167,10.878087520599365,0.06400632858276367,15.623455088615893,15.351963264108631,101501.5,214.0,841.0,155.0,-23.5625,-48.75,-9.375,12.5,-1.125,-3.875,85.25,4.125,-82.625,-0.45208740234375,0.4813232421875,0.508544921875,-0.55255126953125,68.0,-72.0,-3.0,70.0,970.0,125.0,7642,7321.959300916582,1192.2240621599494,
168,10.941094160079956,0.06300663948059082,15.871343214678982,15.35495422505095,101498.75,26.0,912.0,57.0,-24.75,-49.1875,-7.375,14.5,-6.5,-1.25,85.75,3.875,-83.375,-0.45538330078125,0.4853515625,0.50787353515625,-0.54693603515625,-40.0,-59.0,-54.0,67.0,971.0,111.0,7693,7396.167440733267,1190.7799415793033,
169,11.00510048866272,0.06400632858276367,15.623455088615893,15.356515842277053,101498.75,77.0,1157.0,217.0,-24.75,-50.0,-6.5625,-17.875,4.25,16.1875,85.375,4.125,-83.0,-0.45294189453125,0.48388671875,0.5078125,-0.55029296875,5.0,186.0,98.0,71.0,970.0,119.0,7731,7463.133952586613,1176.3267764595755,
170,11.072107076644897,0.06700658798217773,14.923905695153106,15.35389775615446,101498.75,-16.0,962.0,-46.0,-25.0625,-47.6875,-8.1875,-4.5625,-1.375,0.625,84.3125,4.625,-82.5625,-0.45111083984375,0.4818115234375,0.50433349609375,-0.5567626953125,-70.0,-18.0,-158.0,79.0,969.0,126.0,7787,7527.90716206929,1155.3610258028048,
171,11.138113737106323,0.06600666046142578,15.149986274254836,15.35268933646441,101498.75,325.0,1301.0,258.0,-25.875,-48.5,-8.1875,-42.375,-8.25,23.5625,83.5625,5.5,-80.4375,-0.43463134765625,0.47528076171875,0.510009765625,-0.5701904296875,205.0,345.0,112.0,96.0,961.0,167.0,7919,7606.125729655433,1158.3259457547183,
172,11.203119993209839,0.06500625610351562,15.383134792559122,15.352865996637403,101498.75,-165.0,972.0,-61.0,-26.5625,-46.5625,-9.375,-0.25,-10.9375,-29.0,85.375,4.375,-80.0,-0.4368896484375,0.47174072265625,0.51953125,-0.56268310546875,-241.0,9.0,-231.0,75.0,962.0,169.0,8120,7708.900583724347,1200.5932945220156,
173,11.269126892089844,0.06600689888000488,15.149931552123329,15.351677344358787,101498.75,22.0,1006.0,131.0,-24.375,-48.0625,-10.1875,-10.375,-4.375,-3.125,85.625,4.25,-79.3125,-0.4342041015625,0.46820068359375,0.52313232421875,-0.564453125,-50.0,45.0,-49.0,72.0,961.0,180.0,8176,7802.320466979478,1222.0644487620727,
174,11.332133054733276,0.06300616264343262,15.871463330646657,15.354567331639526,101502.75,63.0,857.0,80.0,-24.75,-47.0,-9.75,9.0625,-7.375,-4.9375,86.0,4.125,-79.4375,-0.4342041015625,0.46923828125,0.52459716796875,-0.56219482421875,-6.0,-103.0,-98.0,70.0,961.0,178.0,8429,7927.6563735835825,1298.7844284539058,
175,11.394139289855957,0.062006235122680664,16.127410380931508,15.358773098008381,101502.75,70.0,789.0,107.0,-24.0,-47.6875,-9.75,7.5,-8.875,-4.375,86.8125,3.8125,-80.125,-0.4366455078125,0.4736328125,0.52581787109375,-0.55548095703125,-4.0,-179.0,-98.0,65.0,964.0,166.0,7994,7940.925098866866,1190.3050033960512,
176,11.455145359039307,0.06100606918334961,16.391811722774136,15.364274697842887,101502.75,48.0,845.0,148.0,-24.375,-48.0625,-10.5625,0.8125,-9.1875,-0.375,87.25,3.5625,-80.5,-0.438720703125,0.47503662109375,0.52630615234375,-0.5521240234375,-12.0,-120.0,-12.0,61.0,965.0,160.0,8012,7955.140079093493,1094.5754310082284,
177,11.51815152168274,0.06300616264343262,15.871463330646657,15.367049102175837,101502.75,54.0,898.0,248.0,-24.0,-47.0,-7.75,-3.4375,-10.25,-2.0625,87.75,3.4375,-80.5,-0.437255859375,0.47601318359375,0.52911376953125,-0.5498046875,-5.0,-66.0,87.0,59.0,965.0,160.0,7961,7956.312063274795,986.9779983031688,
178,11.58115816116333,0.06300663948059082,15.871343214678982,15.369792685925969,101502.75,45.0,864.0,236.0,-25.0625,-48.5,-8.875,3.625,-12.125,-0.5625,88.4375,3.375,-80.5625,-0.43572998046875,0.47808837890625,0.53192138671875,-0.54644775390625,-12.0,-100.0,76.0,57.0,965.0,160.0,8003,7965.649650619836,903.1002038278714,
179,11.647164583206177,0.06600642204284668,15.150040996781662,15.368547316494237,101502.75,-17.0,789.0,108.0,-24.375,-47.6875,-8.875,0.5625,-11.0,-1.3125,89.0,3.25,-80.875,-0.4356689453125,0.48101806640625,0.5333251953125,-0.54254150390625,-73.0,-177.0,-46.0,56.0,966.0,154.0,8040,7980.5197204958695,835.3184002697752,
180,11.708170652389526,0.06100606918334961,16.391811722774136,15.373879092141838,101502.25,108.0,1201.0,315.0,-24.375,-48.0625,-8.5625,-30.3125,-0.5625,7.3125,88.4375,3.6875,-79.3125,-0.42718505859375,0.4747314453125,0.536865234375,-0.55126953125,44.0,239.0,134.0,63.0,961.0,180.0,8096,8003.615776396696,789.6451802292988,
181,11.771176815032959,0.06300616264343262,15.871463330646657,15.376542451460338,101502.25,35.0,1145.0,117.0,-24.75,-47.6875,-9.375,-5.625,-3.0625,0.125,88.25,3.9375,-78.6875,-0.42279052734375,0.472900390625,0.53851318359375,-0.55462646484375,-32.0,186.0,-73.0,67.0,959.0,191.0,8152,8033.292621117356,757.7821574816948,
182,11.831182956695557,0.060006141662597656,16.664960823890276,15.383077133212764,101502.25,114.0,1147.0,164.0,-24.75,-47.0,-9.375,-20.0625,11.625,11.625,87.625,4.1875,-78.0,-0.4202880859375,0.46905517578125,0.53802490234375,-0.56024169921875,43.0,191.0,-38.0,71.0,956.0,202.0,8256,8077.8340968938855,756.2321366189371,
183,11.898189783096313,0.06700682640075684,14.923852594050105,15.380490926442189,101502.25,127.0,1124.0,147.0,-25.5,-47.25,-10.1875,-3.125,4.0,2.75,86.625,4.5625,-77.0,-0.4166259765625,0.46319580078125,0.53668212890625,-0.569091796875,48.0,172.0,-72.0,78.0,952.0,219.0,8326,8127.467277515108,754.6807500935429,
184,11.962196111679077,0.06400632858276367,15.623455088615893,15.381790958965711,101502.25,71.0,944.0,55.0,-25.0625,-47.0,-11.375,14.3125,-2.6875,3.5,86.1875,4.5625,-77.5,-0.42041015625,0.4642333984375,0.53277587890625,-0.569091796875,0.0,-37.0,-161.0,78.0,954.0,211.0,8387,8179.373822012087,760.3086317595669,
185,12.02520227432251,0.06300616264343262,15.871463330646657,15.38435660205331,101505.0,38.0,842.0,48.0,-25.5,-47.0,-9.75,18.1875,-0.1875,-4.125,86.5,4.3125,-78.75,-0.42730712890625,0.46954345703125,0.5296630859375,-0.56256103515625,-35.0,-116.0,-141.0,74.0,959.0,193.0,8443,8232.09905760967,767.9604329222852,
186,12.09520936012268,0.0700070858001709,14.284268350412592,15.377989289977318,101505.0,77.0,921.0,139.0,-25.5,-47.6875,-10.1875,22.125,3.125,0.75,86.375,4.1875,-80.0,-0.434814453125,0.47393798828125,0.524169921875,-0.55816650390625,5.0,-35.0,-37.0,71.0,962.0,172.0,8508,8287.279246087737,769.9852516147622,
187,12.159215927124023,0.06400656700134277,15.623396892681672,15.379281124768253,101505.0,113.0,924.0,176.0,-25.0625,-48.5,-9.375,17.625,9.875,7.3125,85.75,4.375,-80.9375,-0.4400634765625,0.4775390625,0.5177001953125,-0.55706787109375,38.0,-40.0,22.0,76.0,965.0,151.0,8574,8344.623396870189,782.5777691680887,
188,12.224222183227539,0.06500625610351562,15.383134792559122,15.379301617893425,101505.0,169.0,914.0,208.0,-25.5,-48.75,-8.1875,21.3125,5.125,4.625,84.875,4.6875,-82.0,-0.44580078125,0.481689453125,0.50933837890625,-0.55657958984375,88.0,-53.0,72.0,80.0,967.0,135.0,8621,8399.898717496151,789.3507630403898,
189,12.292229175567627,0.06800699234008789,14.704370324145813,15.37556754763909,101505.0,128.0,859.0,158.0,-25.875,-47.25,-7.375,14.625,-0.5,1.0,84.375,5.0,-83.1875,-0.4508056640625,0.4879150390625,0.50213623046875,-0.55364990234375,24.0,-109.0,32.0,85.0,970.0,115.0,8663,8452.518973996921,787.7904605502368,
190,12.35523533821106,0.06300616264343262,15.871463330646657,15.378096393873344,101505.0,62.0,891.0,112.0,-25.875,-47.25,-6.1875,7.6875,-4.0,-9.375,84.4375,5.0,-83.625,-0.4522705078125,0.49053955078125,0.50079345703125,-0.5513916015625,-23.0,-79.0,5.0,86.0,970.0,107.0,8682,8498.415179197536,781.8554082809535,
191,12.421241998672485,0.06600666046142578,15.149986274254836,15.376884213383255,101505.25,-148.0,1052.0,147.0,-25.5,-48.0625,-5.375,-18.75,5.1875,-0.5625,84.875,4.6875,-83.4375,-0.45245361328125,0.48822021484375,0.50360107421875,-0.55072021484375,-229.0,81.0,35.0,80.0,970.0,111.0,8733,8545.33214335803,774.7490037589758,
192,12.482248067855835,0.06100606918334961,16.391811722774136,15.381844596922933,101505.25,91.0,1124.0,153.0,-25.5,-48.5,-4.875,-5.75,8.4375,8.1875,83.6875,5.5,-82.4375,-0.44598388671875,0.48590087890625,0.5015869140625,-0.55987548828125,-37.0,86.0,-79.0,94.0,967.0,127.0,8790,8594.265714686424,777.4850921968763,
193,12.545254468917847,0.06300640106201172,15.871403272435558,15.38430332187978,101505.25,25.0,1064.0,36.0,-26.1875,-48.5,-6.875,-27.375,4.3125,10.5625,83.0,6.0,-81.375,-0.44012451171875,0.48187255859375,0.50213623046875,-0.56744384765625,-77.0,99.0,-108.0,102.0,964.0,145.0,8837,8642.81257174914,776.7872575823543,
194,12.607260704040527,0.062006235122680664,16.127410380931508,15.387958142074792,101505.25,84.0,1111.0,109.0,-26.875,-48.75,-7.75,-3.375,-5.875,-19.875,82.9375,6.5,-80.0,-0.4296875,0.478759765625,0.5072021484375,-0.573486328125,-26.0,151.0,-59.0,111.0,959.0,168.0,8954,8705.050057399312,799.4814790398848,
195,12.667266607284546,0.060005903244018555,16.665027037980316,15.39400772443375,101505.25,0.0,1056.0,79.0,-27.25,-47.6875,-9.375,-4.625,-1.4375,-4.5625,84.125,5.5625,-79.8125,-0.43170166015625,0.47515869140625,0.51373291015625,-0.56915283203125,-95.0,96.0,-92.0,95.0,960.0,172.0,8949,8753.840045919449,800.8419789229793,
196,12.730273008346558,0.06300640106201172,15.871403272435558,15.396370515502166,101505.25,75.0,904.0,71.0,-25.75,-48.0625,-8.5625,18.125,-0.9375,-11.3125,84.5625,5.125,-80.25,-0.4356689453125,0.4757080078125,0.5142822265625,-0.56512451171875,-12.0,-58.0,-93.0,87.0,962.0,164.0,8944,8791.87203673556,781.1198873802875,
197,12.79227900505066,0.06200599670410156,16.127472392260604,15.399914270336058,101498.0,22.0,743.0,-1.0,-25.75,-47.6875,-8.875,19.9375,-2.375,-13.625,85.4375,4.375,-81.5625,-0.445556640625,0.47991943359375,0.5133056640625,-0.5546875,-50.0,-224.0,-140.0,73.0,967.0,139.0,8954,8824.29762938845,755.3021836734752,
198,12.86228609085083,0.0700070858001709,14.284268350412592,15.393842012334096,101498.0,23.0,846.0,98.0,-25.375,-50.0,-7.75,1.4375,-7.9375,-10.0625,86.4375,3.9375,-82.25,-0.44659423828125,0.48345947265625,0.5157470703125,-0.54852294921875,-44.0,-122.0,-32.0,68.0,969.0,131.0,8968,8853.03810351076,720.8256297942453,
199,12.927292585372925,0.06500649452209473,15.38307837319416,15.393787886039346,101498.0,6.0,911.0,159.0,-25.5,-49.5625,-6.875,-3.3125,-6.5625,-2.125,87.125,3.75,-82.125,-0.44512939453125,0.48370361328125,0.51934814453125,-0.5460205078125,-57.0,-58.0,26.0,64.0,969.0,133.0,8968,8876.030482808608,684.112424087321,
200,12.995299339294434,0.06800675392150879,14.704421874835665,15.390180308909976,101498.0,39.0,885.0,206.0,-24.375,-50.0,-6.5625,-3.0625,-2.6875,-4.3125,87.625,3.625,-81.8125,-0.442138671875,0.48321533203125,0.52337646484375,-0.5450439453125,-23.0,-82.0,67.0,62.0,968.0,139.0,9048,8910.424386246887,666.2754282864695,
201,13.058305740356445,0.06300640106201172,15.871403272435558,15.392502212504745,101498.0,38.0,853.0,207.0,-24.75,-50.25,-6.1875,0.625,-3.3125,-5.25,88.1875,3.375,-81.6875,-0.4415283203125,0.48284912109375,0.5263671875,-0.54302978515625,-20.0,-114.0,66.0,58.0,968.0,141.0,9066,8941.53950899751,649.0319515624705,
202,13.119311809539795,0.06100606918334961,16.391811722774136,15.397149098408832,101498.0,68.0,866.0,125.0,-24.0,-51.5,-6.5625,-5.75,2.8125,-0.625,88.4375,3.25,-81.4375,-0.4407958984375,0.48150634765625,0.5284423828125,-0.542724609375,12.0,-101.0,-19.0,55.0,968.0,144.0,9132,8979.631607198009,646.5686065890238,
203,13.18431830406189,0.06500649452209473,15.38307837319416,15.397079721403477,101505.25,100.0,1148.0,245.0,-23.5625,-51.0625,-6.875,-13.875,-1.875,-0.5,88.4375,3.375,-80.3125,-0.434326171875,0.47711181640625,0.5328369140625,-0.5474853515625,42.0,183.0,81.0,58.0,965.0,164.0,9245,9032.705285758408,663.555401614954,
204,13.251324892044067,0.06700658798217773,14.923905695153106,15.39468707181718,101505.25,-4.0,1007.0,-33.0,-24.0,-51.5,-6.875,-4.5625,4.9375,-0.5625,88.6875,3.1875,-80.25,-0.43450927734375,0.47650146484375,0.53424072265625,-0.54656982421875,-60.0,42.0,-198.0,55.0,965.0,165.0,9624,9150.964228606726,773.6883925211398,
205,13.318331480026245,0.06700658798217773,14.923905695153106,15.392318497812012,101505.25,307.0,1273.0,306.0,-24.0,-50.25,-8.5625,-35.625,6.5625,39.375,87.3125,4.0,-78.625,-0.42620849609375,0.46923828125,0.53399658203125,-0.55950927734375,79.0,361.0,77.0,68.0,959.0,192.0,9877,9296.17138288538,913.0253409406444,
206,13.381338119506836,0.06300663948059082,15.871343214678982,15.39457400749037,101505.25,168.0,1001.0,-18.0,-25.0625,-50.25,-9.375,-2.75,-2.0,0.0,86.5625,4.375,-78.1875,-0.4237060546875,0.4678955078125,0.53204345703125,-0.5643310546875,92.0,44.0,-217.0,75.0,957.0,199.0,10271,9491.137106308306,1131.1595980009224,
207,13.446344375610352,0.06500625610351562,15.383134792559122,15.394518704687268,101505.25,59.0,965.0,49.0,-23.5625,-51.0625,-10.1875,3.9375,-10.375,-20.5625,87.6875,3.75,-78.125,-0.4244384765625,0.46649169921875,0.53765869140625,-0.55963134765625,-4.0,7.0,-151.0,64.0,957.0,200.0,10182,9629.309685046645,1230.596378537565,
208,13.509350776672363,0.06300640106201172,15.871403272435558,15.396742851563943,101505.25,40.0,890.0,62.0,-25.0625,-51.5,-8.875,14.4375,-12.5,-17.625,90.0,2.5625,-78.9375,-0.42803955078125,0.4700927734375,0.5458984375,-0.54571533203125,1.0,-70.0,-127.0,47.0,960.0,190.0,10131,9729.647748037316,1266.7873268138073,
209,13.572357177734375,0.06300640106201172,15.871403272435558,15.398946348307659,101501.5,45.0,907.0,164.0,-22.5,-53.25,-9.375,14.6875,-7.875,-6.375,91.125,2.0625,-79.75,-0.43170166015625,0.47418212890625,0.5479736328125,-0.53717041015625,7.0,-54.0,14.0,35.0,964.0,174.0,10534,9890.518198429854,1395.432573412258,
210,13.639363765716553,0.06700658798217773,14.923905695153106,15.396612599177754,101501.5,48.0,865.0,209.0,-22.0625,-53.5625,-8.5625,19.1875,0.5,-1.25,91.4375,1.9375,-80.9375,-0.435791015625,0.4796142578125,0.54522705078125,-0.53173828125,14.0,-101.0,52.0,34.0,967.0,156.0,9779,9868.214558743883,1222.6035745378208,
211,13.704370498657227,0.06500673294067383,15.383021954243045,15.396548131902453,101501.5,-21.0,813.0,181.0,-22.875,-53.5625,-6.5625,9.75,8.0,8.125,91.125,2.0,-81.8125,-0.4412841796875,0.48394775390625,0.53973388671875,-0.5289306640625,-37.0,-156.0,44.0,34.0,970.0,139.0,9760,9846.571646995108,1067.0498784255235,
212,13.76837682723999,0.06400632858276367,15.623455088615893,15.39760297528823,101501.5,30.0,855.0,192.0,-23.25,-53.5625,-6.1875,7.6875,7.125,7.6875,90.25,2.4375,-82.25,-0.443115234375,0.4862060546875,0.533935546875,-0.53118896484375,-12.0,-115.0,60.0,42.0,970.0,131.0,9877,9852.657317596086,969.8528107148203,
213,13.833383083343506,0.06500625610351562,15.383134792559122,15.397534985962253,101501.5,102.0,891.0,131.0,-22.875,-54.375,-6.1875,7.8125,4.5,2.3125,89.375,2.875,-82.625,-0.4451904296875,0.48797607421875,0.52825927734375,-0.53350830078125,17.0,-86.0,-33.0,49.0,971.0,124.0,9905,9863.125854076869,888.9714204198087,
214,13.89738941192627,0.06400632858276367,15.623455088615893,15.39857549190875,101501.5,-115.0,1121.0,143.0,-23.25,-53.25,-5.75,-17.75,13.0,16.625,88.6875,2.8125,-82.375,-0.44586181640625,0.48492431640625,0.52734375,-0.53662109375,-164.0,150.0,14.0,49.0,970.0,129.0,9962,9882.900683261496,830.9693939429355,
215,13.965396404266357,0.06800699234008789,14.704370324145813,15.395194935842895,101509.25,21.0,1025.0,-42.0,-24.375,-54.375,-5.375,-10.4375,14.8125,14.4375,87.1875,4.0,-81.5625,-0.4400634765625,0.48297119140625,0.52203369140625,-0.5482177734375,-47.0,58.0,-185.0,68.0,967.0,143.0,9971,9900.520546609197,773.7813541211867,
216,14.029402732849121,0.06400632858276367,15.623455088615893,15.396236326885617,101509.25,350.0,1229.0,131.0,-25.0625,-54.0,-6.875,-28.75,0.8125,36.1875,85.5625,5.3125,-80.0625,-0.428466796875,0.480224609375,0.52008056640625,-0.56146240234375,259.0,268.0,3.0,91.0,961.0,168.0,10032,9926.816437287358,737.4864854116074,
217,14.09140920639038,0.062006473541259766,16.127348370079286,15.39945344157571,101509.25,-207.0,985.0,-123.0,-26.25,-54.0,-7.75,-1.625,4.4375,-27.0,86.9375,4.25,-79.8125,-0.43096923828125,0.47564697265625,0.5277099609375,-0.55633544921875,-268.0,43.0,-280.0,72.0,962.0,172.0,10102,9961.853149829887,720.242763762016,
218,14.156415462493896,0.06500625610351562,15.383134792559122,15.399378506343691,101509.25,-17.0,1063.0,109.0,-25.0625,-53.5625,-8.1875,-10.6875,14.6875,3.8125,86.4375,4.25,-79.0625,-0.42919921875,0.4703369140625,0.52825927734375,-0.56170654296875,-91.0,103.0,-76.0,73.0,960.0,185.0,10112,9991.88251986391,694.413072082715,
219,14.218421697616577,0.062006235122680664,16.127410380931508,15.402553437890424,101509.25,170.0,937.0,76.0,-25.0625,-54.0,-10.5625,3.25,8.9375,3.8125,85.6875,4.5625,-78.8125,-0.42889404296875,0.468505859375,0.5252685546875,-0.56622314453125,92.0,-21.0,-112.0,78.0,959.0,189.0,10154,10024.306015891128,677.2624675159894,
220,14.283428192138672,0.06500649452209473,15.38307837319416,15.402464803308483,101509.25,54.0,904.0,89.0,-25.0625,-54.375,-10.0625,3.125,-3.4375,-12.625,86.1875,4.125,-78.9375,-0.43121337890625,0.4674072265625,0.52728271484375,-0.56353759765625,-22.0,-51.0,-106.0,68.0,960.0,186.0,10192,10057.844812712903,661.1292147695899,
221,14.355435371398926,0.0720071792602539,13.887504138798755,15.394865727326508,101504.25,17.0,888.0,95.0,-25.0625,-54.75,-9.375,4.0625,-5.6875,-1.9375,87.375,3.5,-79.3125,-0.43304443359375,0.468994140625,0.53173828125,-0.55657958984375,-42.0,-72.0,-86.0,60.0,961.0,181.0,10196,10085.475850170324,633.3889079975539,
222,14.42044186592102,0.06500649452209473,15.38307837319416,15.394812590634931,101504.25,42.0,884.0,148.0,-23.875,-55.0625,-9.375,6.6875,-2.6875,-0.0625,88.0,3.3125,-79.8125,-0.43402099609375,0.47271728515625,0.53289794921875,-0.551513671875,-14.0,-79.0,-24.0,57.0,963.0,172.0,10267,10121.780680136259,625.8980216669449,
223,14.480448007583618,0.060006141662597656,16.664960823890276,15.400076011682215,101504.25,21.0,853.0,177.0,-23.1875,-56.5625,-10.1875,4.25,-5.1875,1.25,88.1875,3.375,-80.125,-0.4344482421875,0.475341796875,0.53253173828125,-0.54931640625,-36.0,-110.0,9.0,58.0,964.0,167.0,10318,10161.024544109006,628.7079650686428,
224,14.546454429626465,0.06600642204284668,15.150040996781662,15.39894144540018,101504.25,54.0,832.0,236.0,-25.0625,-56.5625,-6.5625,0.5,-5.3125,4.25,88.6875,3.6875,-80.125,-0.43017578125,0.47943115234375,0.53472900390625,-0.5469970703125,-8.0,-131.0,69.0,63.0,964.0,166.0,10365,10201.819635287206,627.6418989434947,
225,14.608460664749146,0.062006235122680664,16.127410380931508,15.402033462905154,101504.25,45.0,801.0,167.0,-25.0625,-55.875,-7.75,-3.875,-5.5625,2.125,89.25,3.875,-80.0625,-0.42572021484375,0.48284912109375,0.537841796875,-0.54437255859375,-21.0,-162.0,0.0,66.0,963.0,167.0,10459,10253.255708229764,647.8307747219627,
226,14.687468528747559,0.07900786399841309,12.6569679192958,15.387267013212906,101504.5,95.0,1119.0,234.0,-25.0625,-55.875,-7.75,-27.3125,2.875,6.75,89.3125,4.0625,-78.75,-0.4178466796875,0.47802734375,0.5430908203125,-0.5494384765625,25.0,159.0,44.0,70.0,959.0,190.0,10571,10316.804566583813,663.4812833992726,
227,14.751474857330322,0.06400632858276367,15.623455088615893,15.388291828135332,101504.5,93.0,1105.0,82.0,-25.5,-56.5625,-8.1875,-11.625,6.875,5.625,89.125,4.125,-77.75,-0.4130859375,0.47308349609375,0.54632568359375,-0.55419921875,7.0,156.0,-133.0,71.0,955.0,207.0,10637,10380.84365326705,697.1843345304983,
228,14.815481185913086,0.06400632858276367,15.623455088615893,15.38930778817956,101504.5,202.0,1079.0,69.0,-26.5,-55.875,-8.1875,-12.0625,2.3125,8.25,88.625,4.875,-76.8125,-0.40496826171875,0.47210693359375,0.54730224609375,-0.55999755859375,118.0,127.0,-152.0,83.0,951.0,221.0,10988,10502.27492261364,817.1834993764567,
229,14.88848876953125,0.07300758361816406,13.697207200146302,15.381010359401968,101504.5,210.0,1238.0,173.0,-26.5,-55.875,-11.375,-22.8125,-4.4375,3.5625,88.5625,5.0,-75.5625,-0.3983154296875,0.4664306640625,0.55169677734375,-0.56512451171875,124.0,292.0,-68.0,85.0,946.0,242.0,10754,10552.619938090913,804.4237602874887,
230,14.951494932174683,0.06300616264343262,15.871463330646657,15.383077146690821,101504.5,119.0,998.0,59.0,-26.875,-56.5625,-12.875,9.1875,-19.125,-6.875,89.5625,5.0625,-75.5,-0.3935546875,0.46954345703125,0.55682373046875,-0.56085205078125,33.0,52.0,-185.0,86.0,945.0,244.0,10693,10580.695950472731,768.5421243576207,
231,15.013501167297363,0.062006235122680664,16.127410380931508,15.386151266512552,101504.5,106.0,857.0,73.0,-26.875,-56.5625,-10.5625,11.625,-23.375,-11.25,91.5625,4.9375,-76.25,-0.38983154296875,0.479248046875,0.56365966796875,-0.54833984375,22.0,-91.0,-158.0,84.0,949.0,232.0,10735,10611.556760378186,741.4584065251767,
232,15.075507402420044,0.062006235122680664,16.127410380931508,15.389200098350086,101503.25,38.0,903.0,103.0,-26.5,-57.375,-10.5,12.6875,-21.1875,-15.75,93.3125,4.4375,-76.9375,-0.3897705078125,0.48565673828125,0.569091796875,-0.5369873046875,-60.0,-27.0,-81.0,74.0,953.0,217.0,10805,10650.24540830255,729.7073360886181,
233,15.14151382446289,0.06600642204284668,15.150040996781662,15.388157531749645,101503.25,3.0,947.0,182.0,-25.375,-57.75,-8.75,15.5625,-3.8125,-2.0625,95.1875,3.8125,-78.25,-0.39276123046875,0.49456787109375,0.572509765625,-0.5228271484375,-62.0,-10.0,-15.0,66.0,958.0,198.0,10904,10700.996326642042,733.624451826519,
234,15.205520391464233,0.06400656700134277,15.623396892681672,15.389147755269079,101503.25,123.0,915.0,205.0,-25.375,-57.75,-8.0625,12.8125,-0.125,13.875,94.75,4.3125,-79.125,-0.393798828125,0.50115966796875,0.5672607421875,-0.521484375,69.0,-47.0,36.0,74.0,960.0,183.0,10955,10751.797061313633,739.6300106652757,
235,15.269526720046997,0.06400632858276367,15.623455088615893,15.390129917482911,101503.25,127.0,857.0,183.0,-25.0,-57.6875,-6.1875,11.3125,0.0,6.5625,94.6875,4.625,-80.0,-0.39501953125,0.5074462890625,0.5634765625,-0.51861572265625,48.0,-104.0,14.0,79.0,962.0,169.0,11016,10804.637649050908,748.2222645356868,
236,15.335533380508423,0.06600666046142578,15.149986274254836,15.389096299705999,101503.25,93.0,871.0,152.0,-26.5,-58.5,-6.5625,6.5,-2.25,-3.1875,94.5,5.0,-80.5,-0.394775390625,0.51202392578125,0.560302734375,-0.517822265625,-11.0,-92.0,-11.0,86.0,963.0,160.0,10965,10836.710119240726,721.9897863978372,
237,15.397539615631104,0.062006235122680664,16.127410380931508,15.392069506962331,101503.25,58.0,884.0,164.0,-26.875,-58.875,-5.75,8.375,-2.8125,-4.375,94.875,4.875,-80.875,-0.3958740234375,0.51434326171875,0.56036376953125,-0.5145263671875,-33.0,-86.0,0.0,83.0,964.0,154.0,11068,10882.968095392582,724.3929442372851,
238,15.46354603767395,0.06600642204284668,15.150040996781662,15.391036403950224,101503.25,56.0,909.0,200.0,-26.1875,-58.6875,-5.75,3.5,1.9375,-0.625,95.0625,4.6875,-81.0625,-0.39727783203125,0.5146484375,0.56048583984375,-0.51300048828125,-25.0,-56.0,48.0,81.0,965.0,151.0,11120,10930.374476314066,723.7745112605097,
239,15.527552366256714,0.06400632858276367,15.623455088615893,15.391994460078362,101503.25,76.0,967.0,251.0,-25.75,-58.6875,-4.5625,-4.875,6.25,4.0625,95.1875,4.6875,-80.875,-0.396240234375,0.5140380859375,0.561767578125,-0.512939453125,-4.0,2.0,97.0,80.0,965.0,154.0,11195,10983.299581051253,734.0843598266324,
240,15.596559524536133,0.06900715827941895,14.491250254805019,15.388009106908338,101503.25,114.0,954.0,182.0,-26.875,-59.875,-4.5625,-3.0,-0.75,6.25,94.6875,5.125,-80.625,-0.393310546875,0.51416015625,0.560791015625,-0.51611328125,22.0,-19.0,-6.0,87.0,963.0,158.0,11274,11041.439664841004,744.9281742472303,
241,15.662566184997559,0.06600666046142578,15.149986274254836,15.387006008686026,101503.25,-80.0,976.0,61.0,-26.875,-58.6875,-5.375,-18.5,0.4375,-3.625,94.9375,5.0625,-80.5625,-0.392822265625,0.51422119140625,0.56201171875,-0.51519775390625,-166.0,12.0,-98.0,86.0,963.0,159.0,11317,11096.551731872803,753.9300627302649,
242,15.721572160720825,0.0590059757232666,16.947436047662723,15.39286259198803,101503.25,411.0,1181.0,274.0,-27.25,-58.6875,-6.5625,2.4375,-3.125,-4.5625,94.1875,6.25,-78.875,-0.37811279296875,0.511474609375,0.56536865234375,-0.52520751953125,303.0,225.0,87.0,107.0,956.0,187.0,11345,11146.241385498242,762.7482791620023,
243,15.784578323364258,0.06300616264343262,15.871463330646657,15.394772988031777,101503.25,26.0,1071.0,17.0,-29.0625,-58.375,-6.1875,-8.6875,0.875,1.6875,95.0,5.75,-78.9375,-0.37921142578125,0.51068115234375,0.56890869140625,-0.521240234375,-71.0,146.0,-158.0,98.0,957.0,188.0,11317,11180.393108398594,740.6772330149349,
244,15.84758448600769,0.06300616264343262,15.871463330646657,15.396668193530374,101505.25,-15.0,1170.0,84.0,-27.25,-59.0625,-6.1875,-5.375,8.6875,1.4375,95.0625,5.625,-78.4375,-0.3785400390625,0.5067138671875,0.5709228515625,-0.52337646484375,-112.0,214.0,-103.0,96.0,956.0,195.0,11331,11210.514486718876,714.4165448613305,
245,15.91659164428711,0.06900715827941895,14.491250254805019,15.39274270995933,101505.25,138.0,1073.0,67.0,-28.25,-59.0625,-6.875,4.8125,9.25,-0.25,94.3125,5.75,-78.375,-0.38006591796875,0.5057373046875,0.56787109375,-0.526611328125,39.0,117.0,-128.0,99.0,955.0,195.0,11359,11240.2115893751,686.0097050185954,
246,15.978597640991211,0.06200599670410156,16.127472392260604,15.395593876706425,101505.25,95.0,1004.0,61.0,-28.6875,-59.0625,-7.75,8.6875,2.5625,-12.625,94.8125,5.125,-78.8125,-0.38543701171875,0.505126953125,0.56854248046875,-0.5225830078125,7.0,46.0,-127.0,87.0,958.0,188.0,11317,11255.56927150008,642.1767939647101,
247,16.04060387611389,0.062006235122680664,16.127410380931508,15.398422771838932,101505.25,39.0,936.0,51.0,-28.6875,-58.6875,-6.1875,16.125,0.75,-8.25,95.5625,4.5,-79.5625,-0.390625,0.507568359375,0.56884765625,-0.51593017578125,-38.0,-24.0,-124.0,77.0,961.0,176.0,11321,11268.655417200065,599.0636787690705,
248,16.104610204696655,0.06400632858276367,15.623455088615893,15.399317142595274,101505.25,147.0,868.0,74.0,-26.875,-60.1875,-8.1875,14.0,-4.6875,-0.0625,95.6875,4.3125,-80.5,-0.39569091796875,0.51123046875,0.5657958984375,-0.51177978515625,73.0,-96.0,-86.0,74.0,964.0,160.0,11307,11276.324333760052,551.138808237494,
249,16.167616367340088,0.06300616264343262,15.871463330646657,15.401157124373661,101505.25,58.0,833.0,105.0,-27.25,-61.0,-6.1875,15.5625,-8.375,-9.5,96.6875,3.9375,-81.6875,-0.39923095703125,0.51824951171875,0.5653076171875,-0.50244140625,-10.0,-134.0,-35.0,68.0,968.0,141.0,11335,11288.059467008043,514.6503011163176,
250,16.23162293434143,0.06400656700134277,15.623396892681672,15.402033488042168,101507.0,24.0,906.0,174.0,-27.25,-62.0625,-3.0,8.8125,-5.125,0.6875,97.5625,3.75,-82.3125,-0.39971923828125,0.523193359375,0.5662841796875,-0.49578857421875,-40.0,-63.0,44.0,64.0,969.0,130.0,11378,11306.047573606435,491.28880387813996,
251,16.296629428863525,0.06500649452209473,15.38307837319416,15.401957876973333,101507.0,-28.0,833.0,158.0,-26.875,-62.875,-3.75,7.875,1.125,-1.8125,97.75,3.5625,-82.75,-0.40252685546875,0.52484130859375,0.56500244140625,-0.49322509765625,-89.0,-137.0,35.0,61.0,971.0,122.0,11415,11327.838058885149,475.68039777356535,
252,16.365636348724365,0.06900691986083984,14.491300322005555,15.398118021829465,101507.0,59.0,864.0,197.0,-27.375,-61.6875,-2.25,-9.875,6.1875,5.5625,97.375,3.75,-82.625,-0.40228271484375,0.52392578125,0.56396484375,-0.49560546875,-4.0,-105.0,72.0,64.0,970.0,124.0,11415,11345.27044710812,453.37415530309534,
253,16.432642936706543,0.06700658798217773,14.923905695153106,15.39618434931482,101507.0,67.0,930.0,210.0,-27.375,-61.6875,-2.6875,-12.125,8.0,1.25,96.875,3.8125,-81.8125,-0.400146484375,0.51849365234375,0.5655517578125,-0.501220703125,1.0,-49.0,84.0,65.0,968.0,137.0,11471,11370.416357686498,445.5642595818323,
254,16.50064992904663,0.06800699234008789,14.704370324145813,15.393333056104387,101507.0,103.0,1032.0,211.0,-27.6875,-61.375,-5.0,-15.6875,9.125,-1.8125,96.375,3.75,-80.875,-0.39898681640625,0.5115966796875,0.5673828125,-0.507080078125,38.0,66.0,56.0,64.0,966.0,155.0,11490,11394.333086149198,436.1758768494072,
255,16.567656755447388,0.06700682640075684,14.923852594050105,15.391434272451166,101511.25,97.0,1007.0,162.0,-27.375,-61.6875,-5.875,-0.125,3.625,-4.5,96.4375,3.375,-80.3125,-0.400146484375,0.50592041015625,0.56982421875,-0.5091552734375,39.0,42.0,-1.0,57.0,965.0,164.0,11560,11427.466468919358,442.00606120487737,
256,16.63166308403015,0.06400632858276367,15.623455088615893,15.392327195818027,101511.25,77.0,926.0,93.0,-27.6875,-62.5,-5.875,4.0,2.3125,1.4375,96.5,3.125,-80.4375,-0.40234375,0.505615234375,0.569580078125,-0.50799560546875,60.0,-58.0,-100.0,54.0,965.0,161.0,11612,11464.373175135486,455.466481788032,
257,16.693669080734253,0.06200599670410156,16.127472392260604,15.39505777651944,101511.25,31.0,1195.0,205.0,-28.375,-62.5,-4.6875,-28.9375,0.3125,2.1875,96.6875,2.8125,-79.5,-0.4002685546875,0.49896240234375,0.574462890625,-0.5107421875,-17.0,232.0,26.0,48.0,963.0,178.0,11659,11503.29854010839,472.6966085051457,
258,16.75967574119568,0.06600666046142578,15.149986274254836,15.394092581745475,101511.25,-16.0,971.0,-56.0,-26.875,-62.875,-6.1875,7.9375,3.6875,-7.125,96.8125,2.5625,-79.375,-0.4013671875,0.49737548828125,0.575439453125,-0.51031494140625,-61.0,8.0,-236.0,44.0,963.0,179.0,11701,11542.838832086713,485.330435729793,
259,16.825682401657104,0.06600666046142578,15.149986274254836,15.393134959833306,101511.25,102.0,1108.0,96.0,-27.375,-64.0,-7.375,-22.25,5.875,23.4375,95.875,3.1875,-78.6875,-0.39678955078125,0.49468994140625,0.57427978515625,-0.5177001953125,46.0,148.0,-95.0,55.0,960.0,191.0,11753,11584.871065669371,500.4761683421688,
260,16.887688636779785,0.062006235122680664,16.127410380931508,15.395830986233642,101511.25,119.0,1035.0,91.0,-28.0625,-62.875,-7.75,-5.3125,-11.1875,-1.6875,95.375,4.0625,-77.75,-0.38739013671875,0.494384765625,0.5755615234375,-0.523681640625,53.0,88.0,-111.0,70.0,955.0,206.0,11790,11625.896852535498,516.5925216070171,
261,16.962696075439453,0.07500743865966797,13.332011036096171,15.386704969495144,101512.0,36.0,1033.0,126.0,-29.5625,-61.6875,-7.75,-0.5,-14.3125,-7.25,96.375,3.9375,-77.625,-0.38372802734375,0.49591064453125,0.5806884765625,-0.51922607421875,-31.0,77.0,-82.0,67.0,955.0,209.0,11715,11643.717482028398,488.69175235326844,
262,17.025702238082886,0.06300616264343262,15.871463330646657,15.388498890457601,101512.0,56.0,1004.0,166.0,-29.0625,-63.1875,-8.5625,7.3125,-10.0,-8.625,97.375,3.625,-77.9375,-0.38372802734375,0.49853515625,0.583984375,-0.512939453125,-5.0,47.0,-38.0,62.0,957.0,204.0,11757,11666.373985622718,475.7817637177336,
263,17.09170889854431,0.06600666046142578,15.149986274254836,15.387577775935531,101512.0,46.0,909.0,162.0,-29.0625,-64.0,-7.75,19.1875,-4.4375,-15.0,98.5625,2.8125,-79.0625,-0.3902587890625,0.50299072265625,0.584716796875,-0.50286865234375,-2.0,-55.0,-34.0,48.0,961.0,185.0,11734,11679.899188498177,448.6942511379311,
264,17.154715299606323,0.06300640106201172,15.871403272435558,15.38935478608954,101512.0,20.0,873.0,169.0,-27.5625,-64.0,-6.5625,21.0625,-1.375,-12.1875,99.5,2.0,-80.375,-0.398681640625,0.50762939453125,0.58319091796875,-0.49322509765625,-27.0,-108.0,6.0,35.0,966.0,163.0,11800,11703.919350798542,441.94819427798257,
265,17.22172212600708,0.06700682640075684,14.923852594050105,15.387543595295556,101512.0,81.0,847.0,183.0,-26.25,-65.0,-4.875,15.0625,5.125,-2.3125,99.625,1.6875,-81.375,-0.40557861328125,0.5106201171875,0.5792236328125,-0.4891357421875,52.0,-121.0,37.0,29.0,969.0,146.0,11781,11719.335480638834,420.76017978091033,
266,17.28972864151001,0.06800651550292969,14.704473425886972,15.384856842771635,101512.0,85.0,871.0,208.0,-26.5625,-65.375,-3.75,10.9375,4.5,0.25,99.375,1.5625,-82.0,-0.409912109375,0.5123291015625,0.57562255859375,-0.48797607421875,58.0,-99.0,72.0,27.0,970.0,136.0,11837,11742.868384511068,413.2880577651409,
267,17.3527352809906,0.06300663948059082,15.871343214678982,15.386623242762797,101512.75,83.0,904.0,170.0,-26.5625,-64.875,-2.1875,8.8125,3.8125,4.125,98.875,1.8125,-82.1875,-0.41119384765625,0.51385498046875,0.57183837890625,-0.48980712890625,51.0,-67.0,38.0,32.0,971.0,131.0,11903,11774.894707608855,422.7893285675448,
268,17.415741443634033,0.06300616264343262,15.871463330646657,15.388377283125198,101512.75,17.0,913.0,155.0,-25.875,-65.375,-3.0,4.0,2.0,4.9375,98.5,2.0625,-82.6875,-0.41278076171875,0.51629638671875,0.568603515625,-0.4896240234375,-18.0,-58.0,31.0,35.0,972.0,123.0,11898,11799.515766087085,419.58761839068274,
269,17.485748529434204,0.0700070858001709,14.284268350412592,15.383956800430104,101512.75,58.0,974.0,151.0,-26.5625,-65.6875,-3.0,-4.75,-0.0625,10.0625,97.75,2.6875,-82.6875,-0.4100341796875,0.51806640625,0.5655517578125,-0.49359130859375,-11.0,25.0,21.0,47.0,971.0,125.0,11950,11829.612612869669,420.62000014598294,
270,17.552755117416382,0.06700658798217773,14.923905695153106,15.382200582978436,101512.75,-20.0,915.0,-9.0,-27.0,-65.6875,-2.1875,-9.75,2.9375,6.6875,97.1875,3.1875,-82.3125,-0.4066162109375,0.5179443359375,0.56451416015625,-0.49774169921875,-75.0,-55.0,-139.0,55.0,970.0,130.0,11978,11859.290090295735,422.84838756905,
271,17.617761373519897,0.06500625610351562,15.383134792559122,15.382204030037684,101512.75,254.0,1164.0,198.0,-29.5625,-65.6875,-4.1875,-9.125,-4.4375,16.1875,95.625,4.75,-80.75,-0.39324951171875,0.515380859375,0.5643310546875,-0.51116943359375,173.0,199.0,42.0,81.0,964.0,156.0,12006,11888.632072236589,425.70071513984374,
272,17.683768272399902,0.06600689888000488,15.149931552123329,15.381337043673344,101512.75,-161.0,966.0,-122.0,-29.875,-64.5625,-4.1875,4.6875,1.4375,-14.1875,96.4375,4.0625,-81.1875,-0.39764404296875,0.5157470703125,0.56591796875,-0.50555419921875,-231.0,0.0,-271.0,70.0,966.0,148.0,12123,11935.505657789272,454.1438048984337,
273,17.747774600982666,0.06400632858276367,15.623455088615893,15.382210228480387,101514.75,16.0,1128.0,20.0,-28.375,-66.0625,-4.875,-11.1875,25.9375,17.0625,95.125,4.25,-80.6875,-0.3995361328125,0.509765625,0.56231689453125,-0.5140380859375,-56.0,163.0,-137.0,73.0,965.0,157.0,12156,11979.604526231418,477.62709346505574,
274,17.813781261444092,0.06600666046142578,15.149986274254836,15.381349752679512,101514.75,273.0,1170.0,149.0,-29.75,-65.0,-4.1875,-7.0625,19.0,17.875,92.6875,5.3125,-79.8125,-0.39703369140625,0.50469970703125,0.55474853515625,-0.52899169921875,181.0,209.0,-21.0,91.0,961.0,171.0,12166,12016.883620985136,486.34216150209716,
275,17.87378716468811,0.060005903244018555,16.665027037980316,15.385659315855383,101514.75,64.0,995.0,35.0,-31.0,-65.0,-6.875,9.875,4.625,-13.0625,92.375,4.9375,-80.125,-0.40313720703125,0.5025634765625,0.55206298828125,-0.529296875,-20.0,32.0,-131.0,85.0,962.0,166.0,12348,12083.10689678811,548.069213531905,
276,17.943794012069702,0.0700068473815918,14.28431699758199,15.381362481889367,101514.75,123.0,911.0,54.0,-30.1875,-65.0,-6.875,7.9375,2.4375,-2.125,92.5625,4.5,-80.625,-0.4083251953125,0.50238037109375,0.551025390625,-0.5264892578125,46.0,-52.0,-104.0,77.0,964.0,158.0,12447,12155.885517430488,597.2215809689649,
277,18.01180100440979,0.06800699234008789,14.704370324145813,15.378806368790256,101514.75,74.0,817.0,23.0,-29.5,-65.25,-5.375,11.625,-5.5625,-13.5,93.3125,3.875,-81.4375,-0.41412353515625,0.5042724609375,0.55126953125,-0.5198974609375,8.0,-149.0,-122.0,66.0,967.0,145.0,12442,12213.10841394439,621.6420890081372,
278,18.0798077583313,0.06800675392150879,14.704421874835665,15.376269688038896,101511.75,56.0,882.0,114.0,-29.0625,-66.75,-4.5625,1.0625,-5.6875,-7.4375,94.3125,3.3125,-81.875,-0.41656494140625,0.50592041015625,0.5540771484375,-0.51336669921875,0.0,-87.0,-24.0,56.0,969.0,138.0,12512,12272.886731155511,647.3784396313312,
279,18.144814252853394,0.06500649452209473,15.38307837319416,15.376294081165662,101511.75,16.0,958.0,203.0,-29.0625,-67.5625,-4.875,0.75,-4.625,0.125,94.875,3.0625,-81.875,-0.4163818359375,0.50653076171875,0.55615234375,-0.5106201171875,-36.0,-10.0,66.0,53.0,969.0,137.0,12596,12337.50938492441,682.0501304292732,
280,18.204820156097412,0.060005903244018555,16.665027037980316,15.380541944338763,101511.75,23.0,921.0,326.0,-28.25,-67.5625,-5.375,7.6875,5.0,8.6875,94.5,3.375,-82.25,-0.41680908203125,0.50909423828125,0.55322265625,-0.51092529296875,-34.0,-48.0,194.0,57.0,970.0,131.0,12606,12391.207507939529,703.333184579922,
281,18.267826557159424,0.06300640106201172,15.871403272435558,15.382234942988992,101511.75,82.0,887.0,133.0,-28.25,-67.1875,-3.0,23.6875,26.875,11.1875,93.0625,3.9375,-83.3125,-0.4228515625,0.51336669921875,0.54217529296875,-0.5135498046875,15.0,-83.0,20.0,67.0,971.0,113.0,12634,12439.766006351623,710.0690171821567,
282,18.330832958221436,0.06300640106201172,15.871403272435558,15.383916303351732,101511.75,53.0,861.0,135.0,-30.1875,-66.75,-2.1875,0.0,11.5625,10.625,92.4375,4.25,-83.875,-0.425048828125,0.51611328125,0.53704833984375,-0.51434326171875,-19.0,-110.0,31.0,72.0,972.0,103.0,12648,12481.4128050813,705.1614292284062,
283,18.396839380264282,0.06600642204284668,15.150040996781662,15.383077177028358,101511.75,85.0,1063.0,201.0,-31.6875,-66.375,-3.0,-11.8125,8.75,-7.8125,91.75,4.4375,-83.125,-0.42303466796875,0.51165771484375,0.53704833984375,-0.5203857421875,-66.0,126.0,87.0,78.0,970.0,114.0,12653,12515.73024406504,686.6363470563876,
284,18.461845874786377,0.06500649452209473,15.38307837319416,15.383077181240209,101509.0,64.0,1059.0,70.0,-31.25,-67.1875,-4.1875,11.4375,2.5625,0.5,91.6875,4.3125,-83.0625,-0.42431640625,0.509765625,0.53704833984375,-0.521240234375,-9.0,89.0,-46.0,74.0,970.0,117.0,12695,12551.584195252033,673.1271264605681,
285,18.529852867126465,0.06800699234008789,14.704370324145813,15.38058623798434,101509.0,70.0,902.0,-53.0,-31.0,-67.1875,-3.75,15.125,-2.9375,-7.375,92.0,4.25,-83.9375,-0.4271240234375,0.51513671875,0.5347900390625,-0.51593017578125,-2.0,-69.0,-155.0,73.0,972.0,102.0,12728,12586.867356201628,657.6960802954401,
286,18.59385919570923,0.06400632858276367,15.623455088615893,15.38142227440327,101509.0,-65.0,1204.0,-67.0,-31.25,-68.6875,-1.75,-22.4375,7.5,-9.3125,92.8125,3.6875,-83.75,-0.42779541015625,0.512939453125,0.5391845703125,-0.51300048828125,-129.0,232.0,-128.0,63.0,972.0,105.0,12732,12615.893884961302,637.2759391114145,
287,18.65586519241333,0.06200599670410156,16.127472392260604,15.383901901087524,101509.0,65.0,1067.0,-12.0,-31.0,-68.25,-1.75,3.4375,5.3125,-4.8125,92.0625,4.0625,-82.125,-0.420654296875,0.5052490234375,0.5426025390625,-0.52288818359375,-7.0,73.0,-181.0,70.0,969.0,132.0,12798,12652.315107969043,632.286572055244,
288,18.722872018814087,0.06700682640075684,14.923852594050105,15.382255441932035,101509.0,159.0,943.0,-34.0,-30.1875,-67.875,-5.375,-9.0625,-0.9375,0.6875,92.25,4.0625,-82.0,-0.41925048828125,0.50494384765625,0.54412841796875,-0.52264404296875,88.0,-25.0,-170.0,70.0,968.0,135.0,12793,12680.452086375235,611.0491266673172,
289,18.788878679275513,0.06600666046142578,15.149986274254836,15.38143946390864,101509.0,-16.0,961.0,-74.0,-31.25,-68.25,-5.75,2.75,-8.625,-16.6875,93.5625,3.375,-81.875,-0.41961669921875,0.50384521484375,0.55029296875,-0.51690673828125,-74.0,0.0,-221.0,57.0,969.0,137.0,12793,12702.961669100188,584.0462009328102,
290,18.84988498687744,0.06100630760192871,16.391747661980858,15.384709254294483,101514.25,9.0,1039.0,31.0,-30.5625,-69.375,-4.875,6.75,-2.625,-6.25,94.3125,3.1875,-82.0625,-0.41851806640625,0.50653076171875,0.5531005859375,-0.51220703125,-31.0,71.0,-82.0,54.0,969.0,133.0,12873,12736.969335280151,581.3860890990127,
291,18.913891315460205,0.06400632858276367,15.623455088615893,15.385517191913689,101514.25,87.0,953.0,87.0,-29.5,-68.6875,-4.5625,12.25,4.25,9.0,94.3125,3.375,-82.6875,-0.41961669921875,0.51080322265625,0.55023193359375,-0.51019287109375,28.0,-18.0,-36.0,58.0,971.0,123.0,12967,12782.975468224122,595.1249553742128,
292,18.975897312164307,0.06200599670410156,16.127472392260604,15.38794161859299,101514.25,136.0,905.0,97.0,-29.75,-69.75,-3.75,8.875,0.375,10.6875,93.9375,3.9375,-83.375,-0.4188232421875,0.51690673828125,0.54583740234375,-0.50933837890625,68.0,-66.0,-14.0,67.0,971.0,112.0,12986,12823.580374579298,601.0979104601349,
293,19.03990364074707,0.06400632858276367,15.623455088615893,15.388733342796662,101514.25,137.0,889.0,40.0,-29.75,-69.0625,-3.75,6.5,-6.8125,0.8125,93.75,4.3125,-83.875,-0.4183349609375,0.52154541015625,0.54302978515625,-0.508056640625,62.0,-82.0,-63.0,74.0,972.0,103.0,13033,12865.46429966344,606.4252816628245,
294,19.104910373687744,0.06500673294067383,15.383021954243045,15.388713909116882,101514.25,39.0,994.0,51.0,-31.25,-69.75,-3.0,3.3125,-4.875,-0.375,94.375,4.25,-84.1875,-0.417236328125,0.52490234375,0.54449462890625,-0.50390625,-45.0,18.0,-58.0,73.0,972.0,99.0,13042,12900.771439730752,600.0958045762424,
295,19.165916442871094,0.06100606918334961,16.391811722774136,15.39190681955245,101514.25,68.0,972.0,100.0,-31.25,-69.75,-2.1875,8.0625,-1.0625,3.5625,94.5625,4.375,-84.5,-0.41693115234375,0.528076171875,0.54364013671875,-0.501708984375,-6.0,-1.0,7.0,75.0,973.0,92.0,13065,12933.617151784601,593.9262969073337,
296,19.226922512054443,0.06100606918334961,16.391811722774136,15.39507946809589,101515.5,115.0,958.0,168.0,-30.5625,-69.375,-1.1875,6.4375,2.4375,4.75,94.5625,4.5625,-84.9375,-0.41680908203125,0.531494140625,0.54180908203125,-0.500244140625,36.0,-15.0,82.0,78.0,973.0,85.0,13089,12964.69372142768,585.4737950745033,
297,19.29292893409729,0.06600642204284668,15.150040996781662,15.39424112401607,101515.5,64.0,888.0,66.0,-32.5,-68.25,-1.1875,7.3125,2.25,0.5625,94.375,4.5625,-85.5,-0.4200439453125,0.5338134765625,0.53839111328125,-0.498779296875,-14.0,-85.0,-9.0,78.0,974.0,75.0,13098,12991.354977142146,567.318327277036,
298,19.356935262680054,0.06400632858276367,15.623455088615893,15.394999051039889,101515.5,75.0,938.0,121.0,-31.6875,-69.0625,-1.1875,0.5,1.0625,-1.6875,94.25,4.5625,-85.5625,-0.42095947265625,0.5335693359375,0.53759765625,-0.49908447265625,-3.0,-36.0,46.0,78.0,974.0,74.0,13117,13016.483981713716,549.846681983888,
299,19.42394208908081,0.06700682640075684,14.923852594050105,15.393373735812524,101515.5,77.0,953.0,114.0,-32.0625,-69.0625,-0.25,-1.5,0.625,0.875,94.375,4.5,-85.5,-0.42034912109375,0.53338623046875,0.53857421875,-0.49871826171875,0.0,-21.0,37.0,77.0,974.0,76.0,13197,13052.587185370974,548.7419027408879,
300,19.486948490142822,0.06300640106201172,15.871403272435558,15.394919330327705,101515.5,89.0,973.0,97.0,-31.25,-69.0625,-1.1875,-2.75,-1.625,4.3125,94.3125,4.5625,-85.1875,-0.41864013671875,0.53216552734375,0.53973388671875,-0.50018310546875,0.0,-1.0,43.0,78.0,974.0,81.0,13201,13082.269748296781,540.9781051022925,
301,19.550955057144165,0.06400656700134277,15.623396892681672,15.395667327771326,101515.5,50.0,843.0,-56.0,-31.6875,-67.875,-0.6875,5.6875,-1.375,-5.4375,94.625,4.5625,-85.5,-0.41845703125,0.5347900390625,0.539794921875,-0.49755859375,-28.0,-130.0,-133.0,78.0,974.0,76.0,13234,13112.615798637427,534.2911334517842,
302,19.613961219787598,0.06300616264343262,15.871463330646657,15.397195732972413,101512.75,79.0,1163.0,128.0,-32.0625,-69.375,0.5,-26.5,5.0,5.875,94.875,4.625,-84.25,-0.41162109375,0.52978515625,0.54644775390625,-0.50128173828125,0.0,191.0,30.0,79.0,972.0,97.0,13262,13142.492638909942,528.2809375886859,
303,19.679967641830444,0.06600642204284668,15.150040996781662,15.396366778366197,101512.75,-58.0,1045.0,-94.0,-31.6875,-69.0625,-1.1875,-12.0,-0.4375,-3.1875,95.8125,4.375,-83.625,-0.4072265625,0.5281982421875,0.55303955078125,-0.49932861328125,-133.0,73.0,-202.0,75.0,971.0,108.0,13328,13179.594111127955,531.6617263442033,
304,19.74597454071045,0.06600689888000488,15.149931552123329,15.395542994003184,101512.75,5.0,1116.0,-73.0,-31.25,-70.875,-2.25,-15.8125,10.3125,7.5,95.375,4.5625,-82.6875,-0.40374755859375,0.52337646484375,0.5550537109375,-0.50494384765625,-73.0,146.0,-196.0,78.0,969.0,123.0,13366,13216.875288902365,534.9762828562683,
305,19.810980796813965,0.06500625610351562,15.383134792559122,15.395502278668133,101512.75,104.0,1109.0,-61.0,-32.0625,-70.1875,-1.875,-5.9375,9.5625,6.1875,94.625,5.0,-82.0,-0.4005126953125,0.5201416015625,0.5545654296875,-0.51141357421875,35.0,136.0,-159.0,86.0,967.0,135.0,13413,13256.100231121893,541.8189119099746,
306,19.873987197875977,0.06300640106201172,15.871403272435558,15.397011025180877,101512.75,84.0,1076.0,23.0,-32.75,-69.75,-4.1875,7.1875,8.3125,-0.75,94.1875,5.0,-82.0625,-0.40252685546875,0.51910400390625,0.552490234375,-0.51312255859375,-1.0,108.0,-110.0,86.0,967.0,134.0,13464,13297.680184897516,553.6302421611913,
307,19.934993267059326,0.06100606918334961,16.391811722774136,15.400055364316987,101512.75,80.0,933.0,-9.0,-33.1875,-69.75,-3.75,9.75,3.5,1.25,94.1875,5.0,-82.6875,-0.4053955078125,0.5220947265625,0.5496826171875,-0.5107421875,-5.0,-35.0,-133.0,85.0,969.0,123.0,13455,13329.144147918014,549.8423537335058,
308,19.995999336242676,0.06100606918334961,16.391811722774136,15.40308112742088,101512.5,109.0,903.0,0.0,-34.0,-70.1875,-3.375,8.125,-4.3125,-3.4375,94.3125,4.9375,-83.25,-0.40777587890625,0.52496337890625,0.54803466796875,-0.50775146484375,29.0,-63.0,-135.0,84.0,970.0,114.0,13497,13362.71531833441,549.8873488380294,
309,20.058005809783936,0.062006473541259766,16.127348370079286,15.405320096640681,101512.5,35.0,875.0,14.0,-33.1875,-69.75,-3.75,7.8125,-6.6875,-5.9375,95.0,4.625,-83.9375,-0.41033935546875,0.52862548828125,0.54791259765625,-0.501953125,-44.0,-96.0,-85.0,79.0,972.0,102.0,13525,13395.17225466753,547.2430458811964,
310,20.12301206588745,0.06500625610351562,15.383134792559122,15.405248428266477,101512.5,32.0,909.0,66.0,-32.5,-70.1875,-1.75,2.0625,-2.25,-4.9375,95.75,4.3125,-84.1875,-0.41033935546875,0.53057861328125,0.55023193359375,-0.49737548828125,-42.0,-62.0,-32.0,74.0,972.0,98.0,13459,13407.937803734025,512.1561574921683,
311,20.188018560409546,0.06500649452209473,15.38307837319416,15.405177039508867,101512.5,28.0,932.0,102.0,-32.5,-72.0,-1.75,-2.25,-1.625,-2.875,96.125,4.125,-84.1875,-0.41058349609375,0.5303955078125,0.5518798828125,-0.4954833984375,-42.0,-40.0,4.0,70.0,973.0,98.0,13506,13427.550242987221,491.11051075509465,
312,20.25302505493164,0.06500649452209473,15.38307837319416,15.405106109026788,101512.5,73.0,934.0,120.0,-32.0625,-71.25,-1.0625,-4.75,-1.25,-3.5625,96.6875,3.8125,-83.9375,-0.409912109375,0.5289306640625,0.55535888671875,-0.4937744140625,8.0,-39.0,20.0,65.0,973.0,102.0,13483,13438.640194389778,459.0592188376298,
313,20.318031549453735,0.06500649452209473,15.38307837319416,15.405035632421548,101512.5,60.0,889.0,106.0,-31.25,-72.75,-1.375,-7.1875,-1.5,-2.75,97.25,3.5625,-83.6875,-0.40863037109375,0.5274658203125,0.55908203125,-0.49224853515625,0.0,-83.0,-1.0,61.0,972.0,107.0,13534,13457.712155511825,442.49184422096226,
314,20.3820378780365,0.06400632858276367,15.623455088615893,15.405721541630712,101517.5,58.0,899.0,114.0,-32.0625,-71.5625,-3.375,-6.0625,-7.0,-5.375,97.6875,3.375,-83.1875,-0.406005859375,0.52569580078125,0.56298828125,-0.49176025390625,0.0,-72.0,0.0,58.0,972.0,115.0,13633,13492.769724409462,453.01469511769477,
315,20.447044610977173,0.06500673294067383,15.383021954243045,15.405649373449771,101517.5,39.0,951.0,126.0,-32.5,-72.375,-2.1875,-8.5625,-7.375,-1.75,98.3125,3.25,-82.75,-0.40185546875,0.5244140625,0.5684814453125,-0.490234375,-16.0,-19.0,1.0,56.0,971.0,124.0,13661,13526.415779527571,459.47102606148087,
316,20.511050939559937,0.06400632858276367,15.623455088615893,15.40632905311188,101517.5,20.0,980.0,148.0,-31.25,-71.25,-3.0,-10.5,-1.25,-0.875,98.875,3.0625,-82.1875,-0.39935302734375,0.521484375,0.5728759765625,-0.49029541015625,-37.0,26.0,19.0,52.0,969.0,134.0,13685,13558.132623622058,463.07659238161636,
317,20.576057195663452,0.06500625610351562,15.383134792559122,15.40625577512537,101517.5,54.0,1010.0,166.0,-31.25,-73.0625,-4.875,-6.4375,6.3125,10.25,98.375,3.25,-81.5,-0.39727783203125,0.51837158203125,0.5733642578125,-0.4947509765625,-2.0,42.0,22.0,56.0,968.0,144.0,13774,13601.306098897647,483.1832721062155,
318,20.642064094543457,0.06600689888000488,15.149931552123329,15.405436130007,101517.5,154.0,939.0,61.0,-32.0625,-72.375,-4.5625,-3.875,3.5625,9.8125,97.4375,3.8125,-81.25,-0.39508056640625,0.51776123046875,0.5704345703125,-0.50042724609375,88.0,-27.0,-86.0,66.0,967.0,148.0,13774,13635.844879118118,487.19096051899123,
319,20.709070682525635,0.06700658798217773,14.923905695153106,15.403878082717299,101517.5,142.0,995.0,-2.0,-32.75,-72.75,-3.75,-6.1875,-4.875,4.6875,97.1875,4.25,-80.875,-0.39080810546875,0.51800537109375,0.57086181640625,-0.5030517578125,69.0,30.0,-157.0,73.0,965.0,154.0,13849,13678.475903294497,502.09400291669874,
320,20.771076917648315,0.062006235122680664,16.127410380931508,15.406037985835457,101514.75,89.0,1172.0,84.0,-34.25,-72.0,-6.1875,-17.5625,-4.3125,3.625,97.3125,4.4375,-80.0625,-0.38531494140625,0.515625,0.57476806640625,-0.50531005859375,12.0,209.0,-83.0,76.0,963.0,168.0,13778,13698.380722635598,483.98592163225396,
321,20.83708357810974,0.06600666046142578,15.149986274254836,15.405226878161798,101514.75,112.0,1039.0,8.0,-34.0,-71.5625,-6.875,-0.6875,-7.0625,2.5625,97.4375,4.8125,-79.6875,-0.380126953125,0.51605224609375,0.57684326171875,-0.50634765625,29.0,77.0,-166.0,82.0,961.0,174.0,13792,13717.10457810848,463.9539448105565,
322,20.89608931541443,0.0590057373046875,16.947504525471942,15.409581914567626,101514.75,175.0,1090.0,74.0,-35.0,-72.75,-6.1875,-12.125,-6.3125,19.5625,97.1875,5.4375,-79.1875,-0.3736572265625,0.5172119140625,0.57763671875,-0.5091552734375,82.0,131.0,-107.0,93.0,959.0,182.0,13769,13727.483662486786,435.14850827666095,
323,20.960095643997192,0.06400632858276367,15.623455088615893,15.410235024023121,101514.75,100.0,1008.0,99.0,-34.6875,-72.0,-7.375,14.9375,-15.6875,1.6875,97.5,5.8125,-79.5625,-0.37005615234375,0.522705078125,0.57745361328125,-0.50628662109375,0.0,49.0,-77.0,99.0,959.0,176.0,13830,13747.986929989429,423.6668453487373,
324,21.02910280227661,0.06900715827941895,14.491250254805019,15.40721936862298,101514.75,93.0,883.0,128.0,-36.1875,-70.875,-5.375,20.6875,-11.5625,-0.6875,98.0625,6.0625,-80.875,-0.37060546875,0.53302001953125,0.574462890625,-0.49853515625,-10.0,-79.0,-25.0,103.0,962.0,154.0,13853,13768.989543991544,411.735574364835,
325,21.09610915184021,0.06700634956359863,14.923958796633991,15.40568441605974,101514.75,85.0,835.0,87.0,-36.5,-72.75,-3.375,20.75,-8.125,1.25,98.5625,6.125,-82.4375,-0.37384033203125,0.543212890625,0.56982421875,-0.4903564453125,-19.0,-130.0,-40.0,104.0,966.0,127.0,13877,13790.591635193236,402.8008888298697,
326,21.16511631011963,0.06900715827941895,14.491250254805019,15.402702977074139,101523.0,110.0,889.0,152.0,-35.375,-71.5625,-2.5625,11.0625,-0.875,0.875,98.625,6.25,-83.4375,-0.37591552734375,0.5496826171875,0.565673828125,-0.486328125,3.0,-78.0,41.0,107.0,968.0,110.0,13971,13826.67330815459,414.8076551963845,
327,21.231122970581055,0.06600666046142578,15.149986274254836,15.40191729156805,101523.0,96.0,929.0,210.0,-35.375,-72.0,-1.0625,10.9375,3.8125,6.3125,98.3125,6.375,-84.1875,-0.37884521484375,0.55352783203125,0.56109619140625,-0.48504638671875,9.0,-27.0,108.0,109.0,969.0,98.0,13966,13854.538646523673,415.5428390586542,
328,21.294129133224487,0.06300616264343262,15.871463330646657,15.403306608497694,101523.0,121.0,884.0,174.0,-35.75,-71.25,-0.5625,10.125,5.0625,5.6875,97.625,6.6875,-84.875,-0.3819580078125,0.556640625,0.5552978515625,-0.4857177734375,6.0,-86.0,87.0,114.0,970.0,86.0,14004,13884.430917218939,421.4319629737555,
329,21.364136219024658,0.0700070858001709,14.284268350412592,15.399639687142002,101523.0,138.0,890.0,168.0,-35.75,-70.875,0.875,11.625,6.0625,3.0,96.625,7.125,-84.6875,-0.38140869140625,0.55572509765625,0.5518798828125,-0.49102783203125,21.0,-79.0,68.0,122.0,968.0,89.0,14065,13920.544733775152,430.87471136103244,
330,21.43314290046692,0.06900668144226074,14.491350389552059,15.396715336266011,101523.0,145.0,968.0,157.0,-36.5,-71.5625,1.375,4.375,7.75,0.0625,96.1875,7.1875,-84.9375,-0.38409423828125,0.555908203125,0.54888916015625,-0.49212646484375,22.0,0.0,71.0,123.0,969.0,85.0,14088,13954.035787020122,436.32029897373013,
331,21.501149892807007,0.06800699234008789,14.704370324145813,15.394525485854722,101518.5,161.0,1093.0,161.0,-36.1875,-71.5,0.5625,-1.75,6.625,-2.0,95.75,7.0625,-84.875,-0.38714599609375,0.55316162109375,0.54730224609375,-0.49456787109375,25.0,135.0,69.0,120.0,969.0,86.0,14149,13993.0286296161,450.0247888285944,
332,21.56415605545044,0.06300616264343262,15.871463330646657,15.395919003103554,101518.5,23.0,921.0,-165.0,-36.5,-70.75,1.375,-1.0,7.0,-9.125,95.8125,6.625,-85.1875,-0.3919677734375,0.55224609375,0.54620361328125,-0.49298095703125,-146.0,-61.0,-262.0,114.0,970.0,81.0,14215,14037.422903692881,475.48251925576665,
333,21.62716245651245,0.06300640106201172,15.871403272435558,15.397304231176467,101518.5,207.0,1322.0,147.0,-36.875,-70.5,0.5625,-36.8125,14.4375,30.375,94.8125,7.1875,-83.5625,-0.38543701171875,0.5439453125,0.54888916015625,-0.5042724609375,84.0,355.0,38.0,123.0,966.0,108.0,14271,14084.138322954306,502.0781931440884,
334,21.691169023513794,0.06400656700134277,15.623396892681672,15.397971388168857,101518.5,-2.0,1089.0,-131.0,-36.875,-70.0625,-1.75,-5.6875,-1.25,-14.875,94.75,7.125,-82.9375,-0.38433837890625,0.5401611328125,0.55096435546875,-0.50689697265625,-124.0,123.0,-249.0,121.0,965.0,118.0,14346,14136.510658363446,533.6937520590434,
335,21.752175092697144,0.06100606918334961,16.391811722774136,15.400758709066732,101518.5,152.0,1149.0,74.0,-36.5,-71.1875,-3.0,-5.8125,-5.6875,-14.1875,95.625,6.375,-82.1875,-0.38409423828125,0.533935546875,0.55828857421875,-0.50567626953125,43.0,184.0,-57.0,109.0,965.0,132.0,14590,14227.208526690758,628.9946149809647,
336,21.813181161880493,0.06100606918334961,16.391811722774136,15.40353043907117,101518.5,-108.0,863.0,-109.0,-35.375,-71.5,-3.0,17.75,1.9375,-20.3125,97.125,5.0,-83.0625,-0.3931884765625,0.53448486328125,0.56097412109375,-0.4949951171875,-164.0,-133.0,-239.0,86.0,969.0,120.0,14257,14233.166821352606,575.8618779114512,
337,21.87818741798401,0.06500625610351562,15.383134792559122,15.403469837861607,101515.25,133.0,710.0,33.0,-34.0,-73.0,-1.75,13.875,1.0,-1.875,97.0,4.875,-83.8125,-0.3980712890625,0.5369873046875,0.55706787109375,-0.4927978515625,49.0,-260.0,-70.0,84.0,971.0,104.0,14229,14232.333457082084,516.9937146298319,
338,21.945194244384766,0.06700682640075684,14.923852594050105,15.402005388331702,101515.25,48.0,754.0,67.0,-33.1875,-73.375,-1.0625,7.375,-6.75,-9.75,97.5,4.5,-84.6875,-0.40252685546875,0.54071044921875,0.55615234375,-0.48614501953125,-30.0,-204.0,0.0,76.0,973.0,89.0,14318,14249.46676566567,490.8638403418282,
339,22.008200645446777,0.06300640106201172,15.871403272435558,15.403349208838428,101515.25,-4.0,844.0,163.0,-32.0625,-74.1875,0.1875,-1.1875,-8.625,-3.3125,98.3125,4.1875,-84.8125,-0.40167236328125,0.54193115234375,0.558837890625,-0.4822998046875,-77.0,-129.0,70.0,72.0,974.0,88.0,14351,14269.773412532537,474.00695446114497,
340,22.073206901550293,0.06500625610351562,15.383134792559122,15.403289676776435,101515.25,35.0,776.0,89.0,-31.25,-73.375,-0.1875,-5.8125,-4.6875,9.125,98.4375,4.5625,-84.625,-0.3974609375,0.54364013671875,0.559814453125,-0.48284912109375,-43.0,-196.0,-1.0,78.0,973.0,91.0,14383,14292.418730026031,461.44185615730214,
341,22.136213541030884,0.06300663948059082,15.871343214678982,15.404621904642127,101515.25,100.0,876.0,5.0,-32.5,-74.1875,0.5625,-32.1875,-7.375,2.6875,98.4375,5.125,-83.75,-0.38916015625,0.5428466796875,0.56341552734375,-0.486328125,24.0,-151.0,-105.0,87.0,970.0,105.0,14487,14331.334984020825,477.0629929196714,
342,22.2012197971344,0.06500625610351562,15.383134792559122,15.404558989328294,101515.25,341.0,1355.0,301.0,-34.0,-74.875,-1.75,-44.625,-5.1875,28.875,98.0625,5.9375,-80.375,-0.369384765625,0.52978515625,0.57666015625,-0.5003662109375,239.0,394.0,139.0,102.0,961.0,155.0,14646,14394.267987216661,526.1673807339143,
343,22.267226457595825,0.06600666046142578,15.149986274254836,15.403804360331343,101514.0,-67.0,1132.0,71.0,-34.6875,-73.75,-4.1875,-16.0,2.6875,-11.5,98.5,5.875,-79.0625,-0.36285400390625,0.5235595703125,0.584228515625,-0.50286865234375,-168.0,174.0,-113.0,100.0,957.0,184.0,14876,14490.614389773331,619.515310291261,
344,22.337233304977417,0.0700068473815918,14.28431699758199,15.400295788796113,101514.0,114.0,1080.0,71.0,-34.25,-74.1875,-5.375,-12.5,14.0,4.1875,97.6875,6.0625,-77.75,-0.35943603515625,0.51531982421875,0.58575439453125,-0.511962890625,10.0,127.0,-134.0,104.0,952.0,206.0,14679,14528.291511818665,611.3829747473483,
345,22.40224003791809,0.06500673294067383,15.383021954243045,15.400245663650246,101514.0,124.0,962.0,35.0,-35.0,-74.875,-8.5,6.75,13.3125,8.9375,96.5,6.4375,-77.4375,-0.36016845703125,0.5125732421875,0.58172607421875,-0.51873779296875,13.0,11.0,-174.0,110.0,951.0,210.0,14726,14567.833209454933,611.0717575572893,
346,22.46924662590027,0.06700658798217773,14.923905695153106,15.398825148021041,101514.0,212.0,828.0,104.0,-35.0,-73.75,-8.0,13.875,7.6875,11.6875,95.0,7.125,-78.0625,-0.363525390625,0.515380859375,0.57220458984375,-0.524169921875,90.0,-124.0,-95.0,121.0,952.0,200.0,14726,14599.466567563948,597.1739071255547,
347,22.529252767562866,0.060006141662597656,16.664960823890276,15.402197470996603,101514.0,199.0,833.0,104.0,-36.1875,-73.375,-6.5,17.5,-2.4375,-2.9375,94.625,7.375,-79.0625,-0.36700439453125,0.52117919921875,0.56640625,-0.52239990234375,73.0,-121.0,-79.0,126.0,954.0,183.0,14928,14665.17325405116,646.9564520307024,
348,22.597259521484375,0.06800675392150879,14.704421874835665,15.400097506033354,101514.0,127.0,985.0,226.0,-36.1875,-74.875,-6.0625,16.25,-1.1875,-9.25,95.125,6.875,-80.1875,-0.37408447265625,0.52532958984375,0.56402587890625,-0.51568603515625,9.0,26.0,61.0,117.0,959.0,164.0,14951,14722.338603240929,666.3191479384976,
349,22.66326594352722,0.06600642204284668,15.150040996781662,15.399369220201764,101524.0,93.0,994.0,241.0,-36.5,-75.875,-3.6875,24.6875,4.625,-4.0625,95.125,6.5625,-81.375,-0.38116455078125,0.5296630859375,0.5592041015625,-0.51129150390625,-19.0,31.0,96.0,113.0,963.0,145.0,14956,14769.070882592745,670.4868279499544,
350,22.72427201271057,0.06100606918334961,16.391811722774136,15.402033552680207,101524.0,169.0,922.0,153.0,-35.0,-76.25,-1.25,20.0625,6.3125,13.3125,94.25,6.8125,-83.0,-0.3892822265625,0.53680419921875,0.548583984375,-0.50927734375,57.0,-58.0,12.0,117.0,966.0,118.0,15021,14819.456706074197,686.029638355449,
351,22.791278839111328,0.06700682640075684,14.923852594050105,15.40062769087187,101524.0,-10.0,1055.0,16.0,-36.375,-75.25,-1.25,7.25,8.8125,-11.3125,93.75,6.875,-83.8125,-0.39447021484375,0.539794921875,0.54296875,-0.5081787109375,-128.0,87.0,-87.0,117.0,967.0,104.0,15139,14883.365364859357,712.8030148392212,
352,22.858285427093506,0.06700658798217773,14.923905695153106,15.39923023197448,101524.0,104.0,1056.0,6.0,-35.25,-76.25,1.0,9.5,8.5,0.3125,92.9375,7.0625,-83.4375,-0.3946533203125,0.53643798828125,0.54107666015625,-0.51348876953125,-17.0,89.0,-104.0,121.0,966.0,110.0,15331,14972.892291887487,775.1318549697651,
353,22.925292253494263,0.06700682640075684,14.923852594050105,15.39784078199465,101524.0,161.0,1055.0,-39.0,-36.0625,-75.6875,0.6875,-26.375,2.625,10.0,92.5625,7.25,-83.1875,-0.39422607421875,0.5347900390625,0.54022216796875,-0.51654052734375,37.0,90.0,-154.0,124.0,965.0,114.0,15420,15062.31383350999,831.0700600634842,
354,22.99229884147644,0.06700658798217773,14.923905695153106,15.396459590261138,101520.0,203.0,989.0,-67.0,-36.375,-76.0,-1.375,-1.0,-18.125,-16.0,92.5,8.0,-81.6875,-0.38165283203125,0.53216552734375,0.54608154296875,-0.52239990234375,66.0,28.0,-207.0,136.0,961.0,139.0,15397,15129.251066807992,847.8595497805202,
355,23.056305408477783,0.06400656700134277,15.623396892681672,15.397089590488632,101520.0,-50.0,951.0,-7.0,-36.375,-76.6875,-1.0625,3.6875,-20.125,-14.5625,96.0625,6.25,-82.25,-0.3831787109375,0.53515625,0.55999755859375,-0.503173828125,-131.0,-30.0,-132.0,107.0,965.0,130.0,15434,15190.200853446393,858.2978655200684,
356,23.11531138420105,0.0590059757232666,16.947436047662723,15.40104712771987,101520.0,10.0,806.0,34.0,-33.875,-77.75,-1.0625,20.3125,-13.3125,-11.0,97.4375,5.6875,-83.125,-0.385498046875,0.54052734375,0.5621337890625,-0.4931640625,-99.0,-187.0,-93.0,97.0,968.0,116.0,15617,15275.560682757116,917.1311037963492,
357,23.180317878723145,0.06500649452209473,15.38307837319416,15.400996736446173,101520.0,83.0,737.0,20.0,-30.875,-80.0625,2.5625,7.1875,-11.0625,-1.6875,98.375,5.4375,-84.125,-0.38775634765625,0.54693603515625,0.5616455078125,-0.48480224609375,-9.0,-234.0,-78.0,92.0,971.0,99.0,15767,15373.848546205692,976.6149840730407,
358,23.243324041366577,0.06300616264343262,15.871463330646657,15.402272040043012,101520.0,54.0,826.0,27.0,-31.0,-80.0625,3.75,3.25,-17.25,-10.6875,99.3125,5.125,-84.5,-0.38739013671875,0.54998779296875,0.56402587890625,-0.4788818359375,-37.0,-165.0,-65.0,88.0,972.0,93.0,15828,15464.678836964555,1023.1144485748622,
359,23.30733060836792,0.06400656700134277,15.623396892681672,15.402879292882641,101520.0,-12.0,933.0,29.0,-29.75,-80.75,4.0625,-9.8125,-15.8125,-7.1875,101.25,4.6875,-84.1875,-0.381103515625,0.55169677734375,0.57354736328125,-0.47064208984375,-137.0,-10.0,-76.0,80.0,972.0,98.0,15852,15542.143069571644,1041.8284488181337,
360,23.370336771011353,0.06300616264343262,15.871463330646657,15.404142590129265,101520.0,8.0,963.0,55.0,-29.75,-82.0,4.5625,-29.4375,-6.0625,15.0625,101.1875,5.3125,-82.875,-0.36993408203125,0.549072265625,0.579345703125,-0.4754638671875,-62.0,44.0,-50.0,91.0,968.0,121.0,15847,15603.114455657316,1034.4161157840645,
361,23.432343006134033,0.062006235122680664,16.127410380931508,15.406056488055793,101522.5,344.0,1288.0,381.0,-31.375,-82.0,2.0625,-30.1875,-4.9375,8.3125,100.25,6.6875,-80.3125,-0.35186767578125,0.54107666015625,0.5863037109375,-0.489501953125,229.0,328.0,218.0,114.0,960.0,163.0,15852,15652.891564525853,1011.2520904355778,
362,23.49934959411621,0.06700658798217773,14.923905695153106,15.404681672153083,101522.5,-9.0,976.0,-13.0,-32.875,-82.25,-0.5625,2.0,1.5625,-14.25,101.3125,5.8125,-80.1875,-0.355224609375,0.5374755859375,0.59173583984375,-0.48455810546875,-108.0,15.0,-179.0,98.0,961.0,166.0,15880,15698.313251620682,977.9137788638186,
363,23.563356161117554,0.06400656700134277,15.623396892681672,15.405275781511753,101522.5,62.0,1062.0,101.0,-31.375,-83.375,0.6875,4.25,21.4375,-1.9375,100.8125,5.375,-79.75,-0.3612060546875,0.53094482421875,0.58990478515625,-0.48956298828125,-27.0,69.0,-94.0,91.0,961.0,171.0,15903,15739.250601296548,944.0804471494905,
364,23.631362676620483,0.06800651550292969,14.704473425886972,15.40325900715496,101522.5,198.0,829.0,10.0,-31.75,-85.25,-0.375,16.0,23.0,12.25,98.8125,5.625,-80.625,-0.3699951171875,0.53131103515625,0.5787353515625,-0.495849609375,101.0,-132.0,-148.0,96.0,962.0,158.0,15917,15774.800481037239,901.9466286285881,
365,23.694369316101074,0.06300663948059082,15.871343214678982,15.404503708481109,101522.5,235.0,906.0,86.0,-31.375,-85.5625,-1.5625,14.0625,12.625,6.875,97.1875,6.125,-81.4375,-0.3760986328125,0.53369140625,0.568359375,-0.50067138671875,111.0,-29.0,-43.0,105.0,964.0,142.0,16274,15874.640384829792,970.2113037269444,
366,23.76037573814392,0.06600642204284668,15.150040996781662,15.403796810015878,101523.5,119.0,992.0,95.0,-32.1875,-85.5625,0.375,18.9375,1.6875,11.875,96.375,6.375,-82.5,-0.38214111328125,0.5382080078125,0.5599365234375,-0.50079345703125,10.0,25.0,-30.0,108.0,966.0,126.0,16724,16044.512307863835,1130.546833171039,
367,23.824382066726685,0.06400632858276367,15.623455088615893,15.404386941584312,101523.5,20.0,1053.0,86.0,-32.5625,-85.5625,2.0,26.3125,12.9375,-7.8125,95.9375,6.125,-83.9375,-0.39178466796875,0.542236328125,0.55218505859375,-0.49755859375,-84.0,83.0,-16.0,104.0,969.0,102.0,16710,16177.609846291069,1225.4364912562557,
368,23.895389318466187,0.07100725173950195,14.083068637392303,15.400460527990319,101523.5,-105.0,1067.0,-90.0,-32.5625,-87.375,4.1875,-22.125,39.125,-7.4375,94.9375,5.625,-85.1875,-0.406005859375,0.5418701171875,0.5423583984375,-0.4974365234375,-176.0,-20.0,-188.0,96.0,972.0,81.0,16640,16270.087877032856,1233.1302875693775,
369,23.95839548110962,0.06300616264343262,15.871463330646657,15.401699178517358,101523.5,455.0,1017.0,24.0,-32.1875,-88.1875,3.875,9.6875,11.75,-0.625,91.5625,7.375,-83.6875,-0.39947509765625,0.534912109375,0.5338134765625,-0.51898193359375,329.0,51.0,-82.0,126.0,966.0,106.0,16700,16356.070301626285,1246.2839487139095,
370,24.02740240097046,0.06900691986083984,14.491300322005555,15.39908450465939,101523.5,249.0,1092.0,93.0,-34.375,-87.0625,-0.1875,-25.25,-11.3125,1.125,92.25,6.9375,-83.1875,-0.3984375,0.53167724609375,0.5389404296875,-0.517822265625,130.0,126.0,-21.0,118.0,966.0,114.0,16785,16441.85624130103,1245.970535365736,
371,24.09040880203247,0.06300640106201172,15.871403272435558,15.400319813946009,101523.5,120.0,993.0,-1.0,-33.6875,-88.875,-1.75,17.8125,-27.0,-18.25,94.4375,6.1875,-83.0625,-0.39471435546875,0.5335693359375,0.54901123046875,-0.50799560546875,14.0,25.0,-118.0,106.0,967.0,116.0,16818,16517.084993040822,1240.772067483581,
372,24.156415462493896,0.06600666046142578,15.149986274254836,15.399635785267078,101517.0,71.0,698.0,-96.0,-32.1875,-90.0,-1.0625,28.0625,-29.6875,-11.625,97.125,5.125,-85.0625,-0.400146484375,0.54327392578125,0.55206298828125,-0.4873046875,-9.0,-247.0,-194.0,89.0,972.0,88.0,16935,16600.66799443266,1243.3229931199605,
373,24.218421697616577,0.062006235122680664,16.127410380931508,15.401499100856283,101517.0,-54.0,709.0,-54.0,-30.25,-90.25,2.0625,28.375,-29.5,-12.375,99.375,4.5,-87.0,-0.4022216796875,0.5587158203125,0.5531005859375,-0.46923828125,-132.0,-279.0,-120.0,79.0,975.0,56.0,16987,16677.93439554613,1243.6013897494229,
374,24.278427600860596,0.060005903244018555,16.665027037980316,15.40462200223967,101517.0,-22.0,868.0,106.0,-28.375,-91.75,7.1875,10.6875,-24.0,-3.125,101.0,4.375,-88.0625,-0.3994140625,0.56890869140625,0.554931640625,-0.45697021484375,-133.0,-78.0,71.0,75.0,977.0,33.0,17062,16754.747516436906,1247.2505244261242,
375,24.344434022903442,0.06600642204284668,15.150040996781662,15.403931742557537,101517.0,-6.0,918.0,23.0,-28.0625,-91.375,9.6875,-3.375,-12.375,8.5625,101.875,4.75,-88.375,-0.39276123046875,0.57623291015625,0.55657958984375,-0.45159912109375,-88.0,-58.0,-3.0,81.0,976.0,26.0,17038,16811.398013149526,1208.351206751936,
376,24.413440942764282,0.06900691986083984,14.491300322005555,15.401352102782539,101517.0,-73.0,1062.0,103.0,-29.25,-91.375,8.5,-50.9375,4.625,19.1875,101.5,5.5,-86.9375,-0.38189697265625,0.57257080078125,0.56201171875,-0.45880126953125,-167.0,87.0,52.0,94.0,974.0,51.0,17066,16862.318410519623,1161.306363157336,
377,24.48044776916504,0.06700682640075684,14.923852594050105,15.400045111709916,101517.0,238.0,1214.0,182.0,-33.6875,-93.25,3.5625,-24.3125,8.0,-6.25,99.4375,7.25,-83.6875,-0.363037109375,0.56024169921875,0.568115234375,-0.48126220703125,113.0,247.0,75.0,124.0,966.0,106.0,17244,16938.6547284157,1159.0989224269601,
378,24.554455280303955,0.07400751113891602,13.51214200573435,15.394354942306862,101522.25,87.0,1257.0,23.0,-33.6875,-94.75,0.6875,-4.6875,8.25,-11.5625,99.8125,6.5625,-82.6875,-0.364013671875,0.55169677734375,0.5740966796875,-0.48321533203125,-25.0,35.0,-161.0,113.0,966.0,123.0,17305,17011.92378273256,1142.191216839793,
379,24.61946153640747,0.06500625610351562,15.383134792559122,15.394325316154115,101522.25,-36.0,921.0,-149.0,-33.25,-95.5,-1.5,-3.9375,12.3125,12.3125,99.5,6.1875,-82.375,-0.368408203125,0.54638671875,0.5740966796875,-0.4859619140625,-52.0,-24.0,-210.0,105.0,966.0,128.0,17361,17081.73902618605,1135.36982521785,
380,24.683467864990234,0.06400632858276367,15.623455088615893,15.39491946911449,101522.25,182.0,946.0,39.0,-33.5625,-98.5,-1.375,13.5,10.5625,5.6875,98.25,6.5625,-82.6875,-0.37158203125,0.546875,0.5673828125,-0.4908447265625,70.0,-19.0,-83.0,112.0,966.0,123.0,17554,17176.19122094884,1169.3998049858315,
381,24.748474597930908,0.06500673294067383,15.383021954243045,15.394888217953175,101522.25,137.0,869.0,53.0,-33.1875,-99.5625,-2.5625,27.6875,11.3125,0.1875,97.25,6.6875,-84.1875,-0.3807373046875,0.55206298828125,0.5567626953125,-0.49017333984375,-26.0,-115.0,-103.0,114.0,968.0,98.0,17577,17256.352976759073,1175.7728294391975,
382,24.812480926513672,0.06400632858276367,15.623455088615893,15.395477829538978,101522.25,83.0,919.0,35.0,-33.1875,-100.25,-1.25,7.125,23.75,2.75,96.125,6.75,-85.0,-0.38897705078125,0.55279541015625,0.5482177734375,-0.4925537109375,-33.0,-13.0,-40.0,115.0,970.0,84.0,17652,17335.48238140726,1181.8230164662614,
383,24.87948775291443,0.06700682640075684,14.923852594050105,15.394207622105672,101522.25,235.0,1047.0,74.0,-35.375,-100.6875,-0.5,18.25,15.125,-0.8125,94.4375,7.0625,-85.125,-0.394287109375,0.5499267578125,0.54058837890625,-0.4998779296875,114.0,78.0,-7.0,121.0,969.0,82.0,17816,17431.58590512581,1207.0641969940787,
