Index,Time,Difference,Hz,AveHz,Pressure,Acceleration-X,Acceleration-Y,Acceleration-Z,Magnetic-X,Magnetic-Y,Magnetic-Z,Angular-Vel-X,Angular-Vel-Y,Angular-Vel-Z,Heading,Roll,Pitch,Quaternion-X,Quaternion-Y,Quaternion-Z,Quaternion-W,Linear-Acceleration-X,Linear-Acceleration-Y,Linear-Acceleration-Z,Gravity-X,Gravity-Y,Gravity-Z,
0,0.0,0.0,0,0,100587.0,369.0,-19.0,283.0,-38.25,8.25,-37.375,34.375,110.875,66.375,353.5625,39.875,-4.25,0.049560546875,-0.33941650390625,0.052734375,0.9378662109375,-259.0,-75.0,-466.0,629.0,56.0,749.0,
1,0.01590561866760254,0.01590561866760254,62.870864748999445,62.870864748999445,100587.0,400.0,51.0,323.0,-35.6875,8.25,-40.6875,0.3125,124.75,71.375,352.0625,37.625,-3.1875,0.0458984375,-0.32037353515625,0.06524658203125,0.94390869140625,-198.0,7.0,-451.0,599.0,43.0,775.0,
2,0.03323626518249512,0.017330646514892578,57.701251891594445,60.17523295768384,100587.0,354.0,40.0,421.0,-35.6875,8.25,-40.6875,-45.0,142.5,78.125,350.6875,35.0,-1.375,0.04156494140625,-0.3101806640625,0.07147216796875,0.95037841796875,-290.0,66.0,-337.0,581.0,33.0,788.0,
3,0.04903268814086914,0.015796422958374023,63.30547128518602,61.183673866321755,100587.0,386.0,13.0,464.0,-35.6875,8.25,-40.6875,-69.625,147.8125,81.5625,350.125,33.625,-0.1875,0.02642822265625,-0.2880859375,0.082275390625,0.95367431640625,-157.0,10.0,-351.0,543.0,2.0,816.0,
4,0.06493520736694336,0.01590251922607422,62.88311844077961,61.59986488371922,100587.0,483.0,-11.0,701.0,-32.25,9.875,-44.0625,-112.3125,149.8125,120.4375,348.625,30.6875,3.0,0.00262451171875,-0.2657470703125,0.095458984375,0.95928955078125,-17.0,32.0,-140.0,500.0,-44.0,842.0,
5,0.08125996589660645,0.016324758529663086,61.25664880022199,61.530914329473134,100587.0,1164.0,-930.0,395.0,-32.25,9.875,-44.0625,-133.25,158.9375,141.0,347.625,29.0,5.0,-0.01263427734375,-0.25390625,0.1038818359375,0.9615478515625,688.0,-855.0,-458.0,476.0,-75.0,853.0,
6,0.09820151329040527,0.016941547393798828,59.02648540628782,61.0988547829866,100587.0,80.0,-925.0,509.0,-32.25,9.875,-44.0625,-6.25,320.375,130.9375,345.5,23.625,7.125,-0.03216552734375,-0.2110595703125,0.12286376953125,0.96917724609375,-313.0,-813.0,-381.0,393.0,-111.0,891.0,
7,0.11173200607299805,0.013530492782592773,73.90713820020792,62.649908884896234,100587.0,-224.0,-546.0,1451.0,-24.5,13.25,-46.0625,-0.8125,280.1875,-80.875,346.875,17.5,6.5,-0.0355224609375,-0.18072509765625,0.11981201171875,0.9803466796875,-545.0,182.0,260.0,337.0,-110.0,914.0,
8,0.12777376174926758,0.01604175567626953,62.337316449676,62.61066349207534,100587.0,377.0,-464.0,1527.0,-24.5,13.25,-46.0625,29.6875,204.1875,-56.8125,347.5,15.5625,6.0,-0.035888671875,-0.14080810546875,0.1072998046875,0.9835205078125,113.0,-365.0,588.0,264.0,-98.0,939.0,
9,0.14054489135742188,0.012771129608154297,78.30160922973528,64.03647911407866,100587.0,268.0,-258.0,1551.0,-24.5,13.25,-46.0625,71.375,165.3125,-33.0,347.8125,14.0,5.1875,-0.03106689453125,-0.12652587890625,0.1048583984375,0.98590087890625,29.0,-172.0,604.0,238.0,-86.0,947.0,
10,0.15827655792236328,0.017731666564941406,56.39627816920346,63.18055011598831,100587.0,29.0,-258.0,1677.0,-12.5,16.25,-48.5625,144.75,149.0625,-7.375,347.9375,11.125,2.5625,-0.011962890625,-0.09881591796875,0.104248046875,0.98956298828125,-159.0,-214.0,716.0,189.0,-43.0,961.0,
11,0.1728825569152832,0.014605998992919922,68.46501909829911,63.627008972283285,100587.0,258.0,-56.0,1426.0,-12.5,16.25,-48.5625,213.875,134.3125,-2.4375,347.6875,8.4375,-1.25,0.018798828125,-0.07244873046875,0.106689453125,0.991455078125,113.0,-77.0,456.0,144.0,21.0,969.0,
12,0.19108915328979492,0.01820659637451172,54.92514797548583,62.79791287683128,100587.0,180.0,-16.0,1315.0,-12.5,16.25,-48.5625,231.125,137.1875,-5.8125,347.5625,7.125,-3.5,0.03692626953125,-0.058837890625,0.1077880859375,0.99176025390625,58.0,-76.0,344.0,122.0,59.0,971.0,
13,0.2084980010986328,0.01740884780883789,57.44205538360404,62.3507176639558,100587.0,18.0,88.0,1240.0,-5.75,9.5,-51.5625,253.75,144.0,-1.625,347.25,4.375,-8.25,0.0758056640625,-0.0303955078125,0.1104736328125,0.99053955078125,-56.0,-52.0,273.0,75.0,140.0,967.0,
14,0.22287535667419434,0.014377355575561523,69.5538198762914,62.81537900336647,100587.0,16.0,314.0,1196.0,-5.75,9.5,-51.5625,288.0625,138.375,0.3125,346.8125,1.6875,-13.625,0.119873046875,-0.00164794921875,0.11376953125,0.98626708984375,-13.0,82.0,243.0,29.0,231.0,952.0,
15,0.23642230033874512,0.013546943664550781,73.8173882435762,63.445791613177136,100587.0,44.0,355.0,991.0,-5.75,9.5,-51.5625,295.625,130.25,-4.8125,346.6875,0.5,-16.5,0.1431884765625,0.01214599609375,0.1146240234375,0.98297119140625,35.0,77.0,51.0,8.0,278.0,940.0,
16,0.2517573833465576,0.0153350830078125,65.20995024875621,63.5532503051763,100587.0,-38.0,367.0,778.0,0.1875,-2.0625,-53.25,279.875,115.75,-3.625,346.375,-1.6875,-22.0,0.18804931640625,0.03753662109375,0.115966796875,0.97454833984375,8.0,6.0,-47.0,-10.0,324.0,925.0,
17,0.26840829849243164,0.016650915145874023,60.056759117398585,63.336342786284426,100587.0,-39.0,429.0,650.0,0.1875,-2.0625,-53.25,262.875,105.125,-1.5,346.25,-2.625,-24.5625,0.20855712890625,0.04876708984375,0.11663818359375,0.96978759765625,5.0,21.0,-239.0,-45.0,407.0,890.0,
18,0.28520989418029785,0.01680159568786621,59.518156404762244,63.11141502202286,100587.0,58.0,640.0,163.0,0.1875,-2.0625,-53.25,207.9375,61.4375,-6.0625,346.125,-3.9375,-28.9375,0.24371337890625,0.06549072265625,0.11663818359375,0.9605712890625,126.0,166.0,-692.0,-67.0,474.0,855.0,
19,0.30200958251953125,0.0167996883392334,59.5249137845394,62.91191107742832,100587.0,-7.0,533.0,70.0,5.75,-15.1875,-50.875,114.9375,12.25,-12.6875,346.3125,-4.4375,-31.625,0.2655029296875,0.072509765625,0.1141357421875,0.95458984375,68.0,20.0,-761.0,-76.0,513.0,832.0,
20,0.3184025287628174,0.016392946243286133,61.00184708466047,62.8135714804523,100587.0,-52.0,534.0,225.0,5.75,-15.1875,-50.875,70.5625,-5.5,-11.5625,346.5,-4.4375,-32.3125,0.27117919921875,0.072998046875,0.11260986328125,0.953125,24.0,11.0,-600.0,-76.0,523.0,825.0,
21,0.33415961265563965,0.015757083892822266,63.463519443183536,62.84421936304151,100587.0,0.0,466.0,636.0,5.75,-15.1875,-50.875,25.0,-28.25,9.25,346.625,-4.0,-32.9375,0.277099609375,0.06951904296875,0.11138916015625,0.95184326171875,69.0,-65.0,-184.0,-69.0,532.0,820.0,
22,0.3486969470977783,0.014537334442138672,68.7884016138026,63.09203502671036,100587.0,-47.0,714.0,754.0,5.75,-15.1875,-50.875,14.875,-22.75,23.0,346.4375,-3.6875,-33.125,0.2786865234375,0.06732177734375,0.11260986328125,0.95135498046875,16.0,179.0,-65.0,-64.0,534.0,819.0,
23,0.3666238784790039,0.017926931381225586,55.78199518559402,62.734593544258686,100586.0,-115.0,777.0,759.0,6.875,-21.5,-48.25,15.8125,-2.3125,18.1875,346.125,-3.375,-33.4375,0.28155517578125,0.06536865234375,0.1153564453125,0.9503173828125,-57.0,238.0,-57.0,-58.0,539.0,816.0,
24,0.38364219665527344,0.01701831817626953,58.76021294480247,62.55829053540089,100586.0,91.0,722.0,376.0,6.875,-21.5,-48.25,9.8125,25.1875,-4.3125,345.9375,-3.625,-33.6875,0.28338623046875,0.0684814453125,0.11663818359375,0.94940185546875,154.0,178.0,-437.0,-62.0,543.0,813.0,
25,0.4006917476654053,0.017049551010131836,58.65257093314315,62.39210102444153,100586.0,91.0,-529.0,832.0,6.5625,-21.5,-49.25,-43.9375,33.0,-48.75,346.5,-4.5625,-33.1875,0.278076171875,0.0750732421875,0.11248779296875,0.95098876953125,170.0,-137.0,-445.0,-69.0,541.0,814.0,
26,0.4169797897338867,0.016288042068481445,61.394733375294585,62.35314190309559,100586.0,29.0,517.0,584.0,6.5625,-21.5,-49.25,-77.375,40.125,-57.375,346.875,-5.1875,-32.375,0.2711181640625,0.07891845703125,0.10931396484375,0.95306396484375,119.0,-5.0,-239.0,-89.0,523.0,824.0,
27,0.4336833953857422,0.01670360565185547,59.86731373108764,62.25739857064321,100586.0,-379.0,586.0,1092.0,6.5625,-21.5,-49.25,-100.1875,11.125,-47.875,347.6875,-6.0625,-30.5,0.25457763671875,0.08282470703125,0.1029052734375,0.9580078125,-275.0,91.0,252.0,-104.0,495.0,840.0,
28,0.4487154483795166,0.015032052993774414,66.5245126806135,62.40034770614368,100586.0,64.0,378.0,800.0,6.5625,-21.5,-49.25,-126.3125,25.125,-45.6875,348.0,-6.5,-29.25,0.2437744140625,0.084716796875,0.10064697265625,0.96087646484375,176.0,-97.0,-49.0,-111.0,476.0,850.0,
29,0.4647104740142822,0.015995025634765625,62.519437157166706,62.40444668589227,100586.0,-410.0,419.0,1146.0,8.0625,-20.375,-49.25,-121.375,38.625,-53.625,348.75,-7.625,-26.8125,0.22259521484375,0.09063720703125,0.09478759765625,0.966064453125,-280.0,-19.0,279.0,-130.0,438.0,867.0,
30,0.4826490879058838,0.017938613891601562,55.745667198298776,62.15695989432798,100586.0,-154.0,583.0,759.0,8.0625,-20.375,-49.25,-143.125,68.4375,-64.1875,349.375,-9.1875,-24.0625,0.19818115234375,0.10101318359375,0.08984375,0.9708251953125,2.0,188.0,-123.0,-157.0,395.0,883.0,
31,0.501218318939209,0.018569231033325195,53.85252616036464,61.849295663433004,100586.0,-227.0,454.0,954.0,10.6875,-13.6875,-50.5625,-142.75,70.5,-64.5,350.125,-10.9375,-21.1875,0.17230224609375,0.11248779296875,0.08404541015625,0.9749755859375,-41.0,106.0,57.0,-186.0,348.0,897.0,
32,0.5172648429870605,0.016046524047851562,62.31879234518008,61.86386032966962,100586.0,-277.0,447.0,948.0,10.6875,-13.6875,-50.5625,-148.5625,74.5,-66.8125,350.5,-11.875,-19.625,0.15887451171875,0.1185302734375,0.0810546875,0.976806640625,-75.0,124.0,45.0,-201.0,323.0,903.0,
33,0.5332648754119873,0.016000032424926758,62.499873340386536,61.882943208110255,100586.0,-346.0,487.0,835.0,10.6875,-13.6875,-50.5625,-157.125,89.0625,-76.25,351.3125,-13.875,-16.4375,0.13037109375,0.13262939453125,0.07421875,0.979736328125,-110.0,217.0,-77.0,-235.0,269.0,912.0,
34,0.5513763427734375,0.018111467361450195,55.213637859540576,61.66387159263871,100586.0,-330.0,474.0,914.0,10.6875,-13.6875,-50.5625,-154.0,81.6875,-80.3125,351.8125,-14.875,-14.8125,0.1024169921875,0.14483642578125,0.0654296875,0.98199462890625,-56.0,197.0,124.0,-265.0,215.0,918.0,
35,0.5744733810424805,0.02309703826904297,43.29559436805813,60.92536426402647,100586.0,-280.0,253.0,1103.0,14.75,-6.875,-51.375,-157.5625,45.8125,-91.0625,353.5625,-17.0,-9.75,0.0740966796875,0.15301513671875,0.054931640625,0.98388671875,6.0,94.0,179.0,-287.0,159.0,923.0,
36,0.5922822952270508,0.017808914184570312,56.15165470707936,60.781826993831444,100586.0,-355.0,191.0,1126.0,14.75,-6.875,-51.375,-180.25,33.625,-82.9375,354.625,-17.9375,-5.875,0.0423583984375,0.15838623046875,0.04571533203125,0.98541259765625,-52.0,95.0,198.0,-302.0,96.0,927.0,
37,0.6095912456512451,0.017308950424194336,57.77357814845934,60.6964097072486,100586.0,-355.0,191.0,1126.0,14.75,-6.875,-51.375,-180.25,33.625,-82.9375,355.125,-18.25,-3.8125,0.02569580078125,0.16009521484375,0.0416259765625,0.98590087890625,-32.0,88.0,170.0,-307.0,62.0,929.0,
38,0.6256308555603027,0.016039609909057617,62.34565589000372,60.73869225322645,100586.0,-326.0,0.0,1147.0,18.5625,0.5,-51.375,-195.375,-5.0625,-73.5625,356.0,-18.375,0.3125,-0.008544921875,0.1595458984375,0.0343017578125,0.986572265625,-17.0,6.0,216.0,-309.0,-5.0,930.0,
39,0.6400418281555176,0.014410972595214844,69.39156905565483,60.933517598983805,100586.0,-330.0,-78.0,1097.0,18.5625,0.5,-51.375,-202.3125,-21.4375,-68.125,356.3125,-18.125,2.5,-0.0262451171875,0.1571044921875,0.0313720703125,0.98675537109375,-17.0,-8.0,194.0,-305.0,-41.0,930.0,
40,0.6563222408294678,0.016280412673950195,61.423504429962655,60.94567197577752,100586.0,-330.0,-78.0,1097.0,18.5625,0.5,-51.375,-208.75,-33.125,-64.3125,356.625,-17.75,4.6875,-0.04437255859375,0.153564453125,0.02880859375,0.9866943359375,-40.0,3.0,162.0,-292.0,-114.0,928.0,
41,0.6713621616363525,0.015039920806884766,66.48971180368409,61.069870098231576,100586.0,-312.0,-210.0,981.0,18.875,10.6875,-49.25,-237.5625,-27.625,-75.0,357.5625,-16.5,11.875,-0.10345458984375,0.14239501953125,0.020751953125,0.98419189453125,-33.0,-16.0,61.0,-279.0,-193.0,919.0,
42,0.6891720294952393,0.01780986785888672,56.148647925033465,60.9426938449047,100586.0,-261.0,-247.0,924.0,18.875,10.6875,-49.25,-245.5625,-18.9375,-84.25,358.0,-16.125,14.5,-0.12481689453125,0.1396484375,0.016845703125,0.982177734375,11.0,-11.0,12.0,-273.0,-235.0,911.0,
43,0.7057154178619385,0.01654338836669922,60.44710901020349,60.931076339913886,100586.0,-184.0,-349.0,883.0,18.875,10.6875,-49.25,-251.125,-15.9375,-91.0,358.5,-15.75,17.125,-0.14666748046875,0.136962890625,0.012451171875,0.97955322265625,82.0,-70.0,-18.0,-266.0,-278.0,901.0,
44,0.7208917140960693,0.01517629623413086,65.89222986772238,61.035519121164924,100586.0,-19.0,-511.0,786.0,17.0625,21.75,-46.375,-249.125,-30.3125,-82.375,359.9375,-14.125,25.0,-0.21148681640625,0.12640380859375,0.0001220703125,0.96917724609375,240.0,-77.0,-148.0,-240.0,-402.0,861.0,
45,0.7383565902709961,0.017464876174926758,57.2577778384503,60.94616150643936,100586.0,0.0,-479.0,713.0,17.0625,21.75,-46.375,-246.875,-30.0625,-74.9375,0.3125,-13.5625,27.5,-0.23248291015625,0.12255859375,-0.00286865234375,0.96484375,239.0,4.0,-197.0,-230.0,-440.0,845.0,
46,0.7553000450134277,0.01694345474243164,59.01984071145133,60.90294883959952,100584.0,43.0,-406.0,558.0,17.0625,21.75,-46.375,-242.375,-27.125,-69.0625,0.625,-13.0,29.9375,-0.25286865234375,0.1190185546875,-0.00543212890625,0.96014404296875,265.0,71.0,-269.0,-212.0,-512.0,808.0,
47,0.7739040851593018,0.018604040145874023,53.75176532403788,60.73104006205813,100584.0,130.0,-522.0,523.0,14.0625,33.5,-41.0,-211.625,-20.6875,-48.25,1.3125,-11.5625,36.625,-0.3082275390625,0.10968017578125,-0.01092529296875,0.94488525390625,336.0,21.0,-287.0,-196.0,-573.0,770.0,
48,0.7898948192596436,0.015990734100341797,62.536215893842254,60.76758427785319,100584.0,133.0,-552.0,482.0,14.0625,33.5,-41.0,-198.3125,-17.5,-36.8125,1.375,-11.1875,38.5625,-0.3243408203125,0.1075439453125,-0.01153564453125,0.93975830078125,324.0,-56.0,-310.0,-190.0,-600.0,751.0,
49,0.8065524101257324,0.016657590866088867,60.03269068372765,60.75240664442556,100584.0,34.0,-645.0,469.0,11.0625,41.25,-34.875,-157.875,-34.25,-5.9375,1.125,-10.625,41.8125,-0.35137939453125,0.10260009765625,-0.0091552734375,0.9305419921875,215.0,-2.0,-248.0,-180.0,-643.0,717.0,
50,0.8312597274780273,0.024707317352294922,40.47383962173116,60.149672054600586,100584.0,-28.0,-712.0,613.0,11.0625,41.25,-34.875,-92.4375,-74.3125,31.75,359.4375,-9.6875,44.8125,-0.37725830078125,0.08953857421875,0.0045166015625,0.9217529296875,98.0,-14.0,-33.0,-165.0,-681.0,685.0,
51,0.84926438331604,0.018004655838012695,55.54118940106201,60.05197086078809,100584.0,-99.0,-689.0,671.0,11.0625,41.25,-34.875,-78.9375,-73.0625,37.625,358.6875,-9.4375,45.4375,-0.38311767578125,0.08502197265625,0.01031494140625,0.91973876953125,61.0,0.0,-6.0,-161.0,-689.0,678.0,
52,0.8662967681884766,0.017032384872436523,58.711684094122255,60.025619290647725,100584.0,-128.0,-663.0,678.0,8.1875,45.6875,-29.75,-68.5625,-69.25,39.5625,357.9375,-9.25,45.9375,-0.3880615234375,0.08087158203125,0.01617431640625,0.91790771484375,29.0,32.0,5.0,-157.0,-696.0,672.0,
53,0.8854460716247559,0.019149303436279297,52.2212206479245,59.85683566560667,100584.0,-124.0,-635.0,645.0,8.1875,45.6875,-29.75,-40.8125,-53.5,29.6875,356.125,-8.8125,47.125,-0.398681640625,0.07037353515625,0.0308837890625,0.91387939453125,50.0,64.0,-8.0,-150.0,-710.0,659.0,
54,0.9014947414398193,0.016048669815063477,62.31046008943295,59.90051579641394,100584.0,-36.0,-681.0,683.0,8.1875,45.6875,-29.75,-32.125,-52.5,25.9375,355.625,-8.625,47.3125,-0.40087890625,0.067138671875,0.03485107421875,0.91302490234375,110.0,31.0,27.0,-147.0,-713.0,656.0,
55,0.9190366268157959,0.017541885375976562,57.00641513537023,59.84527536248427,100584.0,15.0,-699.0,696.0,8.875,46.75,-26.5,-26.0,-53.3125,24.25,355.125,-8.4375,47.5,-0.402587890625,0.063720703125,0.03863525390625,0.912353515625,140.0,16.0,41.0,-144.0,-715.0,654.0,
56,0.9355237483978271,0.01648712158203125,60.65340120314669,59.8595172980967,100584.0,10.0,-746.0,741.0,8.875,46.75,-26.5,-19.9375,-49.125,30.1875,353.625,-8.0,47.875,-0.40631103515625,0.0543212890625,0.05059814453125,0.91070556640625,134.0,-15.0,80.0,-137.0,-720.0,651.0,
57,0.9512226581573486,0.015698909759521484,63.69869088479179,59.9228787405222,100584.0,-27.0,-723.0,711.0,8.875,46.75,-26.5,-21.0625,-43.9375,32.1875,353.0625,-7.9375,48.0,-0.4075927734375,0.05194091796875,0.0546875,0.9100341796875,109.0,-1.0,62.0,-136.0,-721.0,649.0,
58,0.9680426120758057,0.01681995391845703,59.45319498780972,59.914717881714616,100584.0,-45.0,-719.0,701.0,8.875,47.5625,-25.6875,-21.0625,-38.1875,32.6875,352.5625,-7.9375,48.125,-0.408935546875,0.050048828125,0.05859375,0.9093017578125,90.0,4.0,53.0,-136.0,-723.0,647.0,
59,0.9857442378997803,0.01770162582397461,56.49198610026129,59.85325374633179,100584.0,-96.0,-727.0,657.0,8.875,47.5625,-25.6875,-15.25,-29.1875,30.75,351.25,-8.0625,48.4375,-0.412109375,0.0458984375,0.06927490234375,0.9073486328125,42.0,-35.0,27.0,-137.0,-727.0,643.0,
60,1.002960205078125,0.017215967178344727,58.08561259676772,59.82291191236878,100584.0,-101.0,-774.0,694.0,8.875,47.5625,-25.6875,-10.9375,-32.375,31.3125,350.8125,-8.0625,48.5,-0.41265869140625,0.04443359375,0.07281494140625,0.9068603515625,36.0,-47.0,52.0,-138.0,-727.0,642.0,
61,1.0227382183074951,0.019778013229370117,50.56119582906395,59.64380611584794,100584.0,-117.0,-789.0,756.0,8.875,48.6875,-27.0,-2.5625,-31.3125,33.5625,349.375,-8.125,48.4375,-0.41241455078125,0.04010009765625,0.08416748046875,0.90625,22.0,-63.0,117.0,-139.0,-726.0,643.0,
62,1.0405879020690918,0.01784968376159668,56.02340149865762,59.581703647255544,100584.0,-107.0,-792.0,718.0,8.875,48.6875,-27.0,-3.25,-14.625,29.0,348.625,-8.3125,48.375,-0.41241455078125,0.03924560546875,0.0902099609375,0.90570068359375,37.0,-77.0,52.0,-142.0,-725.0,644.0,
63,1.058485507965088,0.017897605895996094,55.87339478872489,59.51900099333049,100584.0,-105.0,-802.0,673.0,9.6875,47.5625,-25.375,1.125,-5.875,28.125,348.3125,-8.5,48.3125,-0.41217041015625,0.039794921875,0.092529296875,0.905517578125,39.0,-77.0,28.0,-145.0,-724.0,644.0,
64,1.0775346755981445,0.01904916763305664,52.49573205837443,59.39484032332723,100584.0,-109.0,-798.0,650.0,9.6875,47.5625,-25.375,7.0625,-8.75,30.1875,347.6875,-8.8125,48.1875,-0.4112548828125,0.040771484375,0.09747314453125,0.9053955078125,12.0,-83.0,-42.0,-151.0,-722.0,645.0,
65,1.0926544666290283,0.015119791030883789,66.13848021823802,59.48815658122269,100584.0,-153.0,-799.0,626.0,9.6875,47.5625,-25.375,22.8125,-27.5,36.4375,346.875,-9.0625,47.6875,-0.40777587890625,0.0401611328125,0.104248046875,0.90625,-12.0,-63.0,4.0,-154.0,-716.0,651.0,
66,1.109771966934204,0.01711750030517578,58.4197448325812,59.47167703499307,100584.0,-176.0,-758.0,677.0,10.375,46.75,-26.1875,30.875,-32.6875,33.875,346.375,-9.0625,47.3125,-0.40496826171875,0.0390625,0.10784912109375,0.9071044921875,-21.0,-46.0,21.0,-155.0,-712.0,655.0,
67,1.1253862380981445,0.01561427116394043,64.04397550808508,59.53511579564647,100588.5,-175.0,-710.0,680.0,10.375,46.75,-26.1875,29.5,-16.6875,21.4375,345.75,-9.125,46.625,-0.39971923828125,0.0377197265625,0.11358642578125,0.9088134765625,1.0,7.0,-7.0,-156.0,-704.0,664.0,
68,1.1411821842193604,0.01579594612121582,63.30738230721628,59.587330524719185,100588.5,-136.0,-690.0,632.0,10.375,46.75,-26.1875,28.3125,-7.9375,15.375,345.4375,-9.25,46.0,-0.3951416015625,0.0382080078125,0.115966796875,0.91046142578125,69.0,-25.0,-80.0,-158.0,-696.0,671.0,
69,1.158008098602295,0.01682591438293457,59.432134102277075,59.58507551310078,100588.5,-71.0,-726.0,587.0,11.875,47.1875,-27.375,30.875,-7.375,12.375,345.3125,-9.3125,45.6875,-0.39263916015625,0.03839111328125,0.1170654296875,0.911376953125,87.0,-33.0,-88.0,-158.0,-693.0,675.0,
70,1.1755735874176025,0.017565488815307617,56.92981336952833,59.545400431945644,100588.5,-57.0,-718.0,587.0,11.875,47.1875,-27.375,33.6875,-11.9375,13.5625,345.0,-9.3125,45.0,-0.38690185546875,0.03790283203125,0.11993408203125,0.91351318359375,117.0,-16.0,-102.0,-158.0,-684.0,684.0,
71,1.1909425258636475,0.015368938446044922,65.06630262790482,59.61664686422397,100588.5,-3.0,-684.0,607.0,11.875,47.1875,-27.375,35.9375,-14.4375,15.0625,344.6875,-9.3125,44.25,-0.38397216796875,0.03765869140625,0.1214599609375,0.91455078125,155.0,-4.0,-81.0,-158.0,-679.0,688.0,
72,1.2079789638519287,0.01703643798828125,58.69771607702642,59.6036869470068,100588.5,23.0,-670.0,615.0,11.875,45.0,-28.6875,30.75,-2.1875,14.5625,344.5625,-9.4375,43.9375,-0.37872314453125,0.03839111328125,0.1239013671875,0.9163818359375,184.0,0.0,-80.0,-160.0,-671.0,696.0,
73,1.2233331203460693,0.015354156494140625,65.12894409937888,59.67303491247665,100588.5,38.0,-663.0,606.0,11.875,45.0,-28.6875,27.0625,5.8125,14.75,344.375,-9.75,43.375,-0.37481689453125,0.041259765625,0.12548828125,0.91766357421875,211.0,-6.0,-141.0,-166.0,-664.0,701.0,
74,1.2419204711914062,0.018587350845336914,53.800028219237824,59.58513585737893,100588.5,35.0,-675.0,551.0,11.875,45.0,-28.6875,22.5,15.3125,17.75,344.1875,-10.25,42.9375,-0.37158203125,0.04541015625,0.12725830078125,0.91851806640625,198.0,-12.0,-165.0,-174.0,-658.0,705.0,
75,1.2561428546905518,0.014222383499145508,70.31170268050224,59.7065848999126,100588.5,-3.0,-654.0,522.0,11.875,43.5,-29.0625,23.5,31.75,19.75,344.1875,-10.25,42.9375,-0.37158203125,0.04541015625,0.12725830078125,0.91851806640625,198.0,-12.0,-165.0,-174.0,-658.0,705.0,
76,1.2730984687805176,0.01695561408996582,58.97751592446251,59.69687487944219,100588.5,-8.0,-663.0,535.0,11.875,43.5,-29.0625,26.0,12.875,23.3125,343.75,-11.0,42.1875,-0.3658447265625,0.0516357421875,0.1309814453125,0.91998291015625,173.0,-33.0,-151.0,-187.0,-646.0,712.0,
77,1.2931885719299316,0.020090103149414062,49.77575239722776,59.542747029604946,100588.5,-16.0,-682.0,593.0,11.875,43.5,-29.0625,23.6875,18.5,22.8125,343.5625,-11.5625,41.75,-0.36285400390625,0.05706787109375,0.1326904296875,0.92059326171875,157.0,-39.0,-100.0,-197.0,-640.0,716.0,
78,1.3080334663391113,0.014844894409179688,67.3632275472183,59.631501798118585,100588.5,-50.0,-696.0,624.0,13.75,42.6875,-31.0625,12.375,38.375,16.25,343.25,-12.0,41.6875,-0.3624267578125,0.05975341796875,0.1351318359375,0.92022705078125,153.0,-58.0,-91.0,-203.0,-638.0,716.0,
79,1.323357343673706,0.015323877334594727,65.25763539900113,59.69664987137341,100588.5,-58.0,-722.0,625.0,13.75,42.6875,-31.0625,6.375,47.5,12.4375,343.3125,-12.375,41.6875,-0.36236572265625,0.06390380859375,0.1346435546875,0.9200439453125,152.0,-85.0,-89.0,-210.0,-637.0,715.0,
80,1.341822862625122,0.018465518951416016,54.15499031633312,59.62038822582677,100588.5,-96.0,-821.0,607.0,13.75,42.6875,-31.0625,-1.0,57.625,7.4375,343.5625,-13.3125,41.8125,-0.36419677734375,0.0777587890625,0.1312255859375,0.91876220703125,115.0,-206.0,-99.0,-233.0,-636.0,708.0,
81,1.3579211235046387,0.0160982608795166,62.11851127797278,59.65000366954178,100588.5,-137.0,-852.0,619.0,14.875,43.5,-31.0625,1.0,55.25,5.4375,343.6875,-14.1875,41.9375,-0.36480712890625,0.0816650390625,0.1314697265625,0.91815185546875,103.0,-216.0,-87.0,-241.0,-635.0,706.0,
82,1.3725550174713135,0.014633893966674805,68.33451180371137,59.74259607536192,100588.5,-161.0,-863.0,635.0,14.875,43.5,-31.0625,3.375,54.375,4.125,343.8125,-14.625,42.0,-0.3651123046875,0.0860595703125,0.13006591796875,0.91778564453125,86.0,-227.0,-69.0,-254.0,-634.0,702.0,
83,1.3914754390716553,0.018920421600341797,52.85294488268354,59.64891486361754,100588.5,-212.0,-845.0,634.0,14.875,43.5,-31.0625,5.9375,61.75,-2.125,344.3125,-15.5,42.125,-0.36566162109375,0.100341796875,0.12359619140625,0.91705322265625,31.0,-199.0,-66.0,-262.0,-634.0,700.0,
84,1.4051282405853271,0.013652801513671875,73.24504051411009,59.78102038929098,100588.5,-264.0,-805.0,611.0,16.75,42.375,-31.0625,8.8125,66.3125,-7.6875,344.625,-15.875,42.1875,-0.36566162109375,0.100341796875,0.12359619140625,0.91705322265625,31.0,-199.0,-66.0,-269.0,-633.0,698.0,
85,1.4200992584228516,0.014971017837524414,66.79572563820808,59.85497104927734,100588.5,-269.0,-803.0,603.0,16.75,42.375,-29.375,20.0,73.125,-20.0625,345.25,-16.6875,42.1875,-0.36517333984375,0.1099853515625,0.11822509765625,0.91680908203125,12.0,-172.0,-91.0,-282.0,-631.0,695.0,
86,1.4418444633483887,0.02174520492553711,45.987149968203845,59.64582323968745,100588.5,-254.0,-764.0,615.0,16.75,42.375,-29.375,38.1875,67.4375,-27.6875,346.375,-17.375,41.9375,-0.35888671875,0.1240234375,0.1046142578125,0.91912841796875,73.0,-124.0,-56.0,-297.0,-621.0,697.0,
87,1.4571030139923096,0.015258550643920898,65.53702401600025,59.70751495574024,100588.5,-186.0,-726.0,686.0,18.25,42.6875,-28.5625,57.25,54.9375,-29.375,347.3125,-17.8125,41.3125,-0.35552978515625,0.12713623046875,0.10205078125,0.92034912109375,114.0,-110.0,-14.0,-300.0,-616.0,701.0,
88,1.4734432697296143,0.016340255737304688,61.19855258550251,59.7240503301824,100588.5,-139.0,-702.0,712.0,18.25,42.6875,-28.5625,62.375,52.6875,-28.8125,347.875,-18.0,40.875,-0.3514404296875,0.13092041015625,0.09759521484375,0.921875,164.0,-92.0,7.0,-303.0,-610.0,704.0,
89,1.4916963577270508,0.018253087997436523,54.78525059104743,59.66361688756308,100588.5,-53.0,-668.0,743.0,18.25,42.6875,-28.5625,65.0625,60.9375,-23.1875,349.0,-18.5625,39.9375,-0.3427734375,0.13958740234375,0.0887451171875,0.92474365234375,259.0,-71.0,31.0,-318.0,-590.0,715.0,
90,1.5069177150726318,0.015221357345581055,65.69716335385242,59.72456166636948,100586.0,-39.0,-665.0,727.0,19.375,42.375,-29.75,65.875,66.3125,-10.0,349.6875,-19.375,39.0625,-0.33416748046875,0.149169921875,0.08349609375,0.9268798828125,286.0,-82.0,9.0,-325.0,-583.0,717.0,
91,1.5243761539459229,0.017458438873291016,57.278890011744465,59.69655177591306,100586.0,-99.0,-635.0,672.0,19.375,42.375,-29.75,69.625,65.5625,-1.5,350.0625,-19.875,38.5,-0.32916259765625,0.15472412109375,0.08062744140625,0.927978515625,233.0,-61.0,-48.0,-333.0,-574.0,721.0,
92,1.5421223640441895,0.0177462100982666,56.35005978531028,59.65804150504087,100586.0,-156.0,-612.0,646.0,19.375,42.375,-29.75,81.8125,56.3125,20.875,350.4375,-20.9375,37.1875,-0.3172607421875,0.16583251953125,0.07769775390625,0.93048095703125,195.0,-58.0,-82.0,-351.0,-553.0,729.0,
93,1.5592291355133057,0.01710677146911621,58.45638388315145,59.64485775811517,100586.0,-307.0,-512.0,650.0,20.1875,39.6875,-29.875,96.5,53.5625,34.3125,350.125,-22.125,35.4375,-0.30291748046875,0.1761474609375,0.0802001953125,0.93316650390625,62.0,14.0,-89.0,-370.0,-526.0,739.0,
94,1.5776021480560303,0.01837301254272461,54.427655653889076,59.5840973694348,100586.0,-382.0,-439.0,606.0,20.1875,39.6875,-29.875,109.4375,72.375,36.5,350.25,-23.625,33.4375,-0.28594970703125,0.18988037109375,0.079345703125,0.93585205078125,10.0,55.0,-143.0,-393.0,-495.0,749.0,
95,1.5951297283172607,0.01752758026123047,57.05294085641221,59.55628455386992,100586.0,-763.0,1234.0,1937.0,20.1875,39.6875,-29.875,114.125,-48.75,123.0,349.25,-24.6875,30.5625,-0.2645263671875,0.1973876953125,0.07928466796875,0.9398193359375,-2552.0,1464.0,799.0,-406.0,-476.0,754.0,
96,1.6123850345611572,0.017255306243896484,57.95318760880979,59.5391286462345,100586.0,-420.0,788.0,2897.0,23.0625,36.375,-33.25,75.8125,-64.75,-8.625,348.875,-24.0625,29.6875,-0.25885009765625,0.191650390625,0.09124755859375,0.94232177734375,-19.0,1232.0,2120.0,-400.0,-444.0,777.0,
97,1.6270029544830322,0.014617919921875,68.40918580375782,59.61882228469647,100586.0,-1029.0,-73.0,427.0,23.0625,36.375,-33.25,-16.0625,55.5,-2.5,349.4375,-24.5625,29.875,-0.259033203125,0.197265625,0.08673095703125,0.9415283203125,-621.0,371.0,-345.0,-408.0,-444.0,772.0,
98,1.6427886486053467,0.015785694122314453,63.34849720586014,59.65466104431484,100586.0,-616.0,-250.0,117.0,23.0625,36.375,-33.25,-17.375,51.5625,-1.9375,349.5625,-25.0,30.1875,-0.26080322265625,0.201171875,0.085693359375,0.9403076171875,-201.0,196.0,-650.0,-414.0,-447.0,767.0,
99,1.6604433059692383,0.0176546573638916,56.64227741090359,59.622631886375345,100586.0,-488.0,-188.0,507.0,25.0,34.5,-36.1875,5.875,59.6875,33.0625,348.9375,-26.125,30.25,-0.26165771484375,0.20989990234375,0.09063720703125,0.93768310546875,-56.0,255.0,-252.0,-432.0,-443.0,760.0,
100,1.6753289699554443,0.014885663986206055,67.17872987907424,59.68976946817765,100586.0,-628.0,-236.0,604.0,25.0,34.5,-36.1875,14.875,60.625,30.0625,348.6875,-27.5,30.0625,-0.25933837890625,0.2216796875,0.0921630859375,0.93548583984375,-175.0,199.0,-148.0,-453.0,-435.0,752.0,
101,1.6925697326660156,0.01724076271057129,58.002074315821496,59.67257835865467,100586.0,-658.0,-317.0,681.0,25.0,34.5,-36.1875,17.625,47.125,28.5,348.625,-28.0625,29.875,-0.2578125,0.22613525390625,0.09307861328125,0.93475341796875,-196.0,113.0,-68.0,-461.0,-431.0,750.0,
102,1.7100720405578613,0.017502307891845703,57.135322163193024,59.64660995610773,100586.0,-726.0,-369.0,774.0,26.5,33.6875,-34.0625,9.125,37.75,13.5,348.125,-28.875,29.6875,-0.25665283203125,0.23236083984375,0.096923828125,0.93316650390625,-252.0,56.0,28.0,-474.0,-425.0,745.0,
103,1.7265615463256836,0.016489505767822266,60.64463144501316,59.65614154861467,100586.0,-585.0,-303.0,787.0,26.5,33.6875,-34.0625,-7.75,40.5625,-8.75,348.375,-29.5,30.0,-0.2579345703125,0.2384033203125,0.09466552734375,0.9315185546875,-101.0,123.0,48.0,-483.0,-426.0,738.0,
104,1.7423522472381592,0.015790700912475586,63.32841116697619,59.68942282758994,100586.0,-529.0,-253.0,763.0,26.5,33.6875,-34.0625,-15.6875,37.6875,-9.4375,348.5,-29.75,30.3125,-0.2596435546875,0.24102783203125,0.0933837890625,0.93048095703125,-42.0,176.0,28.0,-487.0,-429.0,734.0,
105,1.760619878768921,0.01826763153076172,54.741634038110156,59.63808614578361,100586.0,-548.0,-277.0,710.0,29.0625,32.5625,-34.5625,-20.375,34.4375,-14.1875,348.4375,-30.1875,31.0,-0.2646484375,0.24468994140625,0.0936279296875,0.9281005859375,-54.0,159.0,-15.0,-494.0,-436.0,725.0,
106,1.7744758129119873,0.013855934143066406,72.17124371945764,59.73595088120681,100586.0,-526.0,-376.0,684.0,29.0625,32.5625,-34.5625,-18.75,29.5,-17.5625,348.8125,-30.5625,31.75,-0.26885986328125,0.24847412109375,0.09039306640625,0.9261474609375,-27.0,67.0,-32.0,-499.0,-444.0,717.0,
107,1.7936022281646729,0.019126415252685547,52.28371269726509,59.656482535422114,100586.0,-477.0,-429.0,733.0,29.0625,32.5625,-34.5625,-19.5,27.5,-18.375,349.0,-30.6875,32.0625,-0.27093505859375,0.25006103515625,0.0887451171875,0.92529296875,13.0,43.0,4.0,-500.0,-448.0,714.0,
108,1.8106379508972168,0.017035722732543945,58.700180538255914,59.64748499084716,100586.0,-465.0,-460.0,704.0,29.5,33.0,-33.6875,-20.0,26.75,-19.875,349.125,-30.9375,32.8125,-0.27587890625,0.25238037109375,0.08758544921875,0.92333984375,39.0,-4.0,-2.0,-504.0,-456.0,706.0,
109,1.826730489730835,0.016092538833618164,62.14059884142999,59.66944801806036,100586.0,-419.0,-442.0,683.0,29.5,33.0,-33.6875,-18.875,23.4375,-19.5625,349.5625,-31.125,33.5625,-0.28009033203125,0.2550048828125,0.08416748046875,0.921630859375,87.0,21.0,-15.0,-507.0,-464.0,699.0,
110,1.8459715843200684,0.0192410945892334,51.97209521331301,59.589216288243456,100586.0,-442.0,-452.0,714.0,29.5,33.0,-33.6875,-16.6875,21.6875,-21.0625,349.9375,-31.25,34.25,-0.283935546875,0.25714111328125,0.0806884765625,0.920166015625,66.0,19.0,21.0,-509.0,-471.0,692.0,
111,1.8636088371276855,0.017637252807617188,56.698172380231426,59.561855357522546,100586.0,-400.0,-486.0,701.0,29.75,35.1875,-30.75,-16.25,28.625,-24.8125,350.125,-31.375,34.9375,-0.28863525390625,0.259033203125,0.0789794921875,0.9183349609375,111.0,-6.0,15.0,-511.0,-479.0,685.0,
112,1.883265733718872,0.019656896591186523,50.87273036011013,59.47116118277921,100587.75,-404.0,-483.0,687.0,29.75,35.1875,-30.75,-14.5625,38.3125,-24.4375,350.75,-31.6875,35.75,-0.29254150390625,0.26324462890625,0.0740966796875,0.91632080078125,111.0,3.0,10.0,-515.0,-487.0,676.0,
113,1.9036016464233398,0.020335912704467773,49.17408992320769,59.36115899684931,100587.75,-440.0,-469.0,784.0,29.75,35.1875,-29.5,-15.3125,45.1875,-29.0625,351.0625,-32.0625,36.625,-0.2945556640625,0.26568603515625,0.07135009765625,0.9136962890625,75.0,0.0,91.0,-518.0,-491.0,672.0,
114,1.919785976409912,0.016184329986572266,61.78816181020005,59.38161930591098,100587.75,-514.0,-575.0,662.0,29.75,35.1875,-29.5,-15.3125,46.8125,-30.3125,351.4375,-32.25,37.0625,-0.2996826171875,0.2701416015625,0.06817626953125,0.9124755859375,9.0,-75.0,1.0,-523.0,-500.0,661.0,
115,1.9371390342712402,0.017353057861328125,57.62673114970323,59.36589886706995,100587.75,-650.0,-499.0,622.0,29.75,35.1875,-29.5,-15.1875,25.6875,-37.625,352.1875,-32.3125,37.9375,-0.303955078125,0.27313232421875,0.06201171875,0.91058349609375,-125.0,9.0,-31.0,-524.0,-509.0,653.0,
116,1.9538960456848145,0.01675701141357422,59.67651243526265,59.368562752448554,100587.75,-507.0,-548.0,689.0,28.0,36.375,-29.875,-17.1875,1.25,-59.5625,353.1875,-31.75,38.8125,-0.30914306640625,0.271240234375,0.0540771484375,0.909912109375,9.0,-25.0,40.0,-516.0,-522.0,648.0,
117,1.97283935546875,0.018943309783935547,52.789085508596166,59.305386257463724,100587.75,-418.0,-655.0,685.0,28.0,36.375,-29.875,-15.75,-10.1875,-72.6875,354.375,-30.8125,39.75,-0.31201171875,0.2689208984375,0.04937744140625,0.90997314453125,55.0,-81.0,55.0,-510.0,-530.0,647.0,
118,1.9873924255371094,0.014553070068359375,68.71402359108781,59.37428284608135,100587.75,-343.0,-768.0,669.0,28.0,36.375,-29.875,-11.25,-15.625,-72.8125,355.0,-30.25,40.125,-0.3172607421875,0.262939453125,0.03948974609375,0.9102783203125,150.0,-222.0,22.0,-494.0,-546.0,647.0,
119,2.0048670768737793,0.017474651336669922,57.22574835593637,59.355555973096514,100587.75,-287.0,-713.0,750.0,28.6875,39.375,-28.6875,1.9375,-17.4375,-70.625,356.1875,-29.0625,40.5625,-0.320556640625,0.256103515625,0.03009033203125,0.91143798828125,189.0,-155.0,99.0,-476.0,-557.0,650.0,
120,2.0221264362335205,0.01725935935974121,57.93957812435247,59.34347024487547,100587.75,-140.0,-688.0,819.0,28.6875,39.375,-28.6875,7.125,-15.4375,-69.375,356.8125,-28.5,40.75,-0.3216552734375,0.2530517578125,0.0250244140625,0.912109375,244.0,-122.0,152.0,-468.0,-562.0,652.0,
121,2.036665916442871,0.014539480209350586,68.77824967613925,59.41082384848466,100587.75,-139.0,-709.0,811.0,28.6875,39.375,-28.6875,7.125,-13.0,-59.5,358.0,-27.5,41.0,-0.3231201171875,0.24761962890625,0.015869140625,0.91326904296875,313.0,-138.0,156.0,-453.0,-571.0,655.0,
122,2.0526084899902344,0.01594257354736328,62.72513010707663,59.43656600610691,100587.75,-144.0,-684.0,772.0,25.0,40.0625,-29.0625,2.5,-7.6875,-46.5625,358.9375,-26.75,41.25,-0.32373046875,0.245361328125,0.01190185546875,0.91400146484375,303.0,-109.0,115.0,-447.0,-574.0,657.0,
123,2.0692808628082275,0.016672372817993164,59.97946488581275,59.44094018879405,100587.75,-269.0,-596.0,781.0,25.0,40.0625,-29.0625,-3.6875,-7.625,-39.9375,359.25,-26.4375,41.4375,-0.3255615234375,0.2418212890625,0.005615234375,0.9140625,167.0,-15.0,123.0,-437.0,-581.0,658.0,
124,2.0866148471832275,0.017333984375,57.690140845070424,59.42639590022598,100587.75,-265.0,-613.0,735.0,25.0,40.0625,-29.0625,2.8125,3.0,-33.875,359.9375,-26.0,41.6875,-0.32708740234375,0.23980712890625,0.00018310546875,0.9140625,164.0,-27.0,77.0,-429.0,-586.0,658.0,
125,2.1040215492248535,0.017406702041625977,57.44913640784013,59.41003790861908,100587.75,-216.0,-612.0,706.0,25.0,40.0625,-29.0625,16.5625,10.6875,-19.6875,0.5625,-25.8125,41.625,-0.32586669921875,0.24005126953125,-0.00469970703125,0.9144287109375,184.0,-24.0,48.0,-427.0,-586.0,659.0,
126,2.1190857887268066,0.015064239501953125,66.38237528488224,59.45960313183147,100587.75,-243.0,-611.0,708.0,22.1875,41.5625,-28.6875,20.25,9.875,-14.625,0.8125,-25.8125,41.5,-0.3245849609375,0.24041748046875,-0.00653076171875,0.91473388671875,154.0,-37.0,65.0,-427.0,-585.0,660.0,
127,2.134974718093872,0.01588892936706543,62.93690260042315,59.48548192335829,100587.75,-339.0,-593.0,809.0,22.1875,41.5625,-28.6875,13.6875,18.3125,-6.1875,1.125,-25.875,41.375,-0.3223876953125,0.24224853515625,-0.00921630859375,0.9150390625,89.0,-10.0,148.0,-428.0,-583.0,661.0,
128,2.151909589767456,0.016934871673583984,59.049753625228774,59.482052874643394,100587.75,-360.0,-592.0,810.0,22.1875,41.5625,-28.6875,10.375,25.9375,-5.75,1.3125,-26.0625,41.375,-0.32171630859375,0.24407958984375,-0.0106201171875,0.914794921875,71.0,-10.0,149.0,-431.0,-582.0,660.0,
129,2.1691808700561523,0.01727128028869629,57.89958725031405,59.46945309206081,100587.75,-381.0,-622.0,798.0,22.0,42.0,-29.5,5.5,37.1875,-5.3125,1.6875,-26.5,41.5,-0.32073974609375,0.24920654296875,-0.01348876953125,0.9136962890625,-211.0,15.0,248.0,-438.0,-581.0,657.0,
130,2.185863494873047,0.01668262481689453,59.94260561367404,59.4730642169173,100587.75,-701.0,-554.0,840.0,22.0,42.0,-29.5,-5.5625,38.1875,-23.125,2.25,-26.8125,41.875,-0.32183837890625,0.254150390625,-0.01812744140625,0.911865234375,-258.0,29.0,190.0,-443.0,-584.0,650.0,
131,2.202239990234375,0.016376495361328125,61.063126019100864,59.484888377700486,100587.75,-675.0,-586.0,800.0,22.0,42.0,-29.5,-9.5625,36.0625,-34.5625,2.6875,-26.875,42.25,-0.3255615234375,0.25653076171875,-0.02386474609375,0.90972900390625,-150.0,63.0,6.0,-443.0,-588.0,647.0,
132,2.2194855213165283,0.01724553108215332,57.98603680201291,59.473242214124376,100587.75,-593.0,-529.0,649.0,22.6875,42.0,-28.1875,-12.9375,29.125,-43.625,3.0,-26.8125,42.625,-0.32763671875,0.2567138671875,-0.028076171875,0.9088134765625,-99.0,59.0,-39.0,-439.0,-598.0,640.0,
133,2.235678195953369,0.01619267463684082,61.756320214379315,59.48977819828148,100587.75,-472.0,-567.0,677.0,22.6875,42.0,-28.1875,-11.6875,4.9375,-58.25,4.625,-25.9375,43.6875,-0.3319091796875,0.25482177734375,-0.03680419921875,0.907470703125,-42.0,41.0,39.0,-429.0,-609.0,637.0,
134,2.2541332244873047,0.018455028533935547,54.1857737126321,59.44635327864344,100589.25,-436.0,-550.0,673.0,22.6875,42.0,-28.1875,-13.375,2.1875,-60.625,5.75,-25.1875,44.375,-0.33673095703125,0.251953125,-0.0457763671875,0.9061279296875,16.0,79.0,22.0,-417.0,-621.0,633.0,
135,2.273306369781494,0.019173145294189453,52.15628341913502,59.38486857491889,100589.25,-345.0,-573.0,635.0,21.6875,42.6875,-28.1875,-20.0625,11.8125,-60.4375,6.9375,-24.4375,45.1875,-0.34210205078125,0.25006103515625,-0.05499267578125,0.90411376953125,101.0,87.0,-2.0,-406.0,-633.0,628.0,
136,2.289229393005371,0.015923023223876953,62.80214416195011,59.40863786545,100589.25,-305.0,-546.0,625.0,21.6875,42.6875,-28.1875,-21.4375,16.75,-55.8125,7.5,-24.1875,45.625,-0.3448486328125,0.24981689453125,-0.05926513671875,0.90283203125,103.0,96.0,-9.0,-402.0,-639.0,624.0,
137,2.306368589401245,0.017139196395874023,58.345792702435766,59.40073959972135,100589.25,-286.0,-557.0,607.0,21.6875,42.6875,-28.1875,-21.1875,24.0,-51.1875,8.0,-24.0,46.0625,-0.347412109375,0.25030517578125,-0.06341552734375,0.9014892578125,113.0,87.0,-13.0,-399.0,-645.0,621.0,
138,2.322723627090454,0.016355037689208984,61.143240327706344,59.41300910296628,100589.25,-324.0,-584.0,607.0,20.875,43.5,-27.875,-19.625,37.4375,-35.875,9.375,-23.8125,47.3125,-0.35430908203125,0.25439453125,-0.07354736328125,0.8968505859375,59.0,70.0,-7.0,-396.0,-659.0,607.0,
139,2.340747356414795,0.01802372932434082,55.48241332328003,59.38274355798026,100589.25,-336.0,-589.0,599.0,20.875,43.5,-27.875,-18.5625,38.9375,-31.6875,9.75,-23.8125,47.75,-0.35614013671875,0.25653076171875,-0.07672119140625,0.895263671875,48.0,76.0,-12.0,-396.0,-663.0,602.0,
140,2.356471300125122,0.01572394371032715,63.59727676608391,59.41086572646414,100589.25,-369.0,-582.0,572.0,20.875,43.5,-27.875,-16.75,39.5,-27.6875,10.125,-23.875,48.125,-0.3577880859375,0.2587890625,-0.07965087890625,0.8936767578125,28.0,85.0,-25.0,-397.0,-667.0,598.0,
141,2.37408185005188,0.017610549926757812,56.784143831907286,59.39138113410824,100589.25,-368.0,-585.0,550.0,19.75,45.0,-26.1875,-5.125,37.0,-18.4375,10.9375,-24.1875,48.9375,-0.36102294921875,0.26483154296875,-0.08544921875,0.89007568359375,20.0,83.0,-49.0,-401.0,-674.0,587.0,
142,2.3899595737457275,0.015877723693847656,62.98132019941138,59.41523093524412,100589.25,-381.0,-591.0,537.0,19.75,45.0,-26.1875,0.0625,36.5,-15.9375,11.25,-24.25,49.0625,-0.36114501953125,0.26708984375,-0.0877685546875,0.88909912109375,-11.0,70.0,-62.0,-403.0,-675.0,584.0,
143,2.405958652496338,0.01599907875061035,62.5035988376425,59.43576788056114,100589.25,-440.0,-621.0,536.0,19.75,45.0,-26.1875,6.1875,33.875,-13.625,11.5625,-24.375,49.1875,-0.3607177734375,0.2691650390625,-0.0899658203125,0.888427734375,-35.0,54.0,-46.0,-405.0,-676.0,583.0,
144,2.4245543479919434,0.01859569549560547,53.77588594286887,59.392358071603226,100589.25,-464.0,-623.0,572.0,18.6875,46.375,-25.6875,24.25,12.0,-9.25,12.1875,-24.5625,48.9375,-0.35693359375,0.27215576171875,-0.09503173828125,0.8885498046875,-72.0,72.0,32.0,-407.0,-672.0,585.0,
145,2.439579725265503,0.01502537727355957,66.55406927849447,59.43646706779359,100589.25,-480.0,-600.0,618.0,18.6875,46.375,-25.6875,28.25,3.875,-8.5,12.375,-24.5,48.6875,-0.35498046875,0.27197265625,-0.096435546875,0.88922119140625,-81.0,81.0,54.0,-407.0,-670.0,588.0,
146,2.4567413330078125,0.01716160774230957,58.269598921937735,59.42831589081084,100589.25,-490.0,-572.0,671.0,18.6875,46.375,-25.6875,29.8125,-0.625,-8.875,12.5,-24.4375,48.4375,-0.35296630859375,0.27142333984375,-0.0977783203125,0.89007568359375,-84.0,96.0,80.0,-406.0,-668.0,591.0,
147,2.4750258922576904,0.01828455924987793,54.69095461005855,59.39331804965817,100589.25,-476.0,-586.0,681.0,19.75,46.375,-24.875,25.25,5.1875,-18.125,12.9375,-24.1875,47.8125,-0.34832763671875,0.269287109375,-0.10150146484375,0.89208984375,-51.0,72.0,75.0,-401.0,-663.0,600.0,
148,2.491227626800537,0.01620173454284668,61.72178647634464,59.40846127741252,100589.25,-419.0,-590.0,675.0,19.75,46.375,-24.875,22.6875,5.5,-19.3125,13.1875,-24.0625,47.6875,-0.34698486328125,0.2689208984375,-0.1036376953125,0.8924560546875,-19.0,75.0,96.0,-400.0,-662.0,602.0,
149,2.5065388679504395,0.015311241149902344,65.31149174711928,59.444520053197955,100589.25,-402.0,-591.0,715.0,19.75,46.375,-24.875,20.125,4.9375,-18.625,13.4375,-23.9375,47.5625,-0.3458251953125,0.26861572265625,-0.10565185546875,0.892822265625,-3.0,69.0,111.0,-398.0,-661.0,604.0,
150,2.5221288204193115,0.01558995246887207,64.14387741057364,59.4735680372829,100589.25,-425.0,-607.0,656.0,18.6875,44.875,-25.6875,16.6875,9.0,-18.375,13.625,-23.875,47.4375,-0.34515380859375,0.26806640625,-0.106689453125,0.89312744140625,-21.0,66.0,85.0,-397.0,-660.0,606.0,
151,2.5412707328796387,0.01914191246032715,52.241384034775244,59.41909220702923,100589.25,-405.0,-641.0,584.0,18.6875,44.875,-25.6875,18.0625,6.75,-18.6875,14.375,-23.625,47.1875,-0.34222412109375,0.267822265625,-0.11285400390625,0.8935546875,-11.0,17.0,-28.0,-393.0,-659.0,610.0,
152,2.5568621158599854,0.01559138298034668,64.13799220123863,59.447867390719935,100589.25,-386.0,-648.0,584.0,18.6875,44.875,-25.6875,20.6875,4.1875,-18.6875,14.625,-23.5,47.0625,-0.341064453125,0.26739501953125,-0.11480712890625,0.89385986328125,5.0,9.0,-27.0,-391.0,-658.0,612.0,
153,2.5750157833099365,0.018153667449951172,55.08528801449923,59.41711153449053,100589.25,-397.0,-631.0,647.0,18.6875,46.0625,-27.0,23.625,2.1875,-18.0,15.1875,-23.1875,46.5,-0.337158203125,0.26519775390625,-0.11956787109375,0.8953857421875,19.0,28.0,32.0,-386.0,-654.0,619.0,
154,2.59269380569458,0.017678022384643555,56.56741338152589,59.39768115376955,100589.25,-337.0,-623.0,667.0,18.6875,46.0625,-27.0,21.0625,2.625,-17.625,15.4375,-23.0625,46.375,-0.3359375,0.26470947265625,-0.12139892578125,0.895751953125,47.0,29.0,45.0,-385.0,-653.0,621.0,
155,2.6078133583068848,0.015119552612304688,66.13952314873218,59.43676893373738,100589.25,-311.0,-632.0,687.0,18.6875,46.0625,-27.0,18.0625,3.6875,-15.3125,15.625,-23.0,46.25,-0.33489990234375,0.26434326171875,-0.12310791015625,0.89599609375,72.0,19.0,64.0,-383.0,-652.0,623.0,
156,2.6261167526245117,0.018303394317626953,54.63467500325648,59.40329950833121,100589.25,-313.0,-638.0,687.0,17.1875,45.6875,-26.5625,9.1875,7.6875,-7.75,16.0,-22.9375,46.0625,-0.33282470703125,0.26434326171875,-0.12615966796875,0.8963623046875,76.0,14.0,56.0,-382.0,-650.0,626.0,
157,2.6413865089416504,0.015269756317138672,65.48892983168348,59.43848030892938,100584.75,-333.0,-637.0,651.0,17.1875,45.6875,-26.5625,7.625,7.6875,-5.375,16.0625,-22.9375,46.0,-0.332275390625,0.26470947265625,-0.126953125,0.8963623046875,48.0,12.0,25.0,-382.0,-650.0,626.0,
158,2.6660263538360596,0.02463984489440918,40.58467105963405,59.26423036766268,100584.75,-386.0,-625.0,663.0,16.375,46.0625,-28.1875,6.1875,4.375,-1.0625,16.1875,-23.0,45.9375,-0.33123779296875,0.2652587890625,-0.12786865234375,0.89642333984375,-3.0,23.0,36.0,-383.0,-648.0,627.0,
159,2.683077812194824,0.01705145835876465,58.646010151148644,59.260301463241596,100584.75,-383.0,-614.0,697.0,16.375,46.0625,-28.1875,2.5,3.125,-0.9375,16.3125,-23.0,45.875,-0.3306884765625,0.265869140625,-0.12847900390625,0.8963623046875,7.0,34.0,72.0,-384.0,-648.0,627.0,
160,2.701404333114624,0.018326520919799805,54.56573041747434,59.228453156261004,100584.75,-364.0,-615.0,710.0,16.375,46.0625,-28.1875,-3.1875,4.4375,-2.5,16.3125,-23.0625,45.9375,-0.33099365234375,0.26617431640625,-0.12872314453125,0.8961181640625,19.0,33.0,83.0,-384.0,-648.0,626.0,
161,2.7188539505004883,0.017449617385864258,57.307846807580376,59.21612669572156,100584.75,-348.0,-629.0,676.0,16.75,45.0,-27.0,-5.8125,4.3125,-1.5,16.1875,-23.0625,46.0,-0.331787109375,0.2659912109375,-0.12750244140625,0.89605712890625,15.0,30.0,69.0,-384.0,-649.0,625.0,
162,2.737872838973999,0.019018888473510742,52.579308269922656,59.17002341887745,100584.75,-348.0,-638.0,652.0,16.75,45.0,-27.0,-5.625,1.8125,0.4375,16.1875,-22.9375,45.9375,-0.33154296875,0.2647705078125,-0.127685546875,0.896484375,32.0,0.0,14.0,-382.0,-649.0,627.0,
163,2.7544009685516357,0.01652812957763672,60.50291385378801,59.17802159563984,100584.75,-379.0,-653.0,627.0,16.75,45.0,-27.0,-2.375,-0.9375,3.875,16.125,-22.9375,45.9375,-0.3316650390625,0.26483154296875,-0.1273193359375,0.896484375,3.0,-3.0,0.0,-382.0,-649.0,627.0,
164,2.7724609375,0.018059968948364258,55.37108080634728,59.15322296583304,100584.75,-392.0,-665.0,641.0,17.1875,45.375,-27.0,1.0625,-3.125,5.6875,15.6875,-23.0,45.9375,-0.33209228515625,0.26416015625,-0.12506103515625,0.8968505859375,3.0,-5.0,6.0,-383.0,-648.0,627.0,
165,2.790992259979248,0.018531322479248047,53.96268944754651,59.11875943404688,100584.75,-427.0,-667.0,672.0,17.1875,45.375,-27.0,3.4375,-3.125,6.3125,15.625,-23.0,45.75,-0.3311767578125,0.26361083984375,-0.12353515625,0.89752197265625,-43.0,-21.0,43.0,-383.0,-646.0,629.0,
166,2.807708501815796,0.01671624183654785,59.8220586767076,59.122946663674234,100584.75,-461.0,-677.0,692.0,17.1875,45.375,-27.0,4.0625,-9.5625,5.25,15.5625,-23.0,45.6875,-0.330810546875,0.26300048828125,-0.12298583984375,0.89788818359375,-78.0,-31.0,62.0,-383.0,-646.0,630.0,
167,2.8257691860198975,0.018060684204101562,55.36888795015313,59.09895288907863,100584.75,-473.0,-675.0,688.0,17.1875,45.6875,-28.1875,3.1875,-15.875,-0.3125,15.3125,-22.8125,45.5,-0.33087158203125,0.2589111328125,-0.1209716796875,0.89935302734375,-31.0,-2.0,19.0,-378.0,-645.0,634.0,
168,2.8438894748687744,0.018120288848876953,55.186758243204125,59.074025725895,100584.75,-374.0,-627.0,637.0,17.1875,45.6875,-28.1875,2.0,-23.375,-4.4375,15.1875,-22.25,45.3125,-0.33123779296875,0.25494384765625,-0.120361328125,0.90045166015625,27.0,37.0,-13.0,-372.0,-645.0,638.0,
169,2.8586344718933105,0.014744997024536133,67.81961355000404,59.119135958669496,100584.75,-335.0,-561.0,643.0,16.75,45.0,-27.375,1.25,-25.5625,-2.6875,15.0,-22.0625,45.1875,-0.331787109375,0.25250244140625,-0.11871337890625,0.90118408203125,33.0,83.0,3.0,-369.0,-645.0,639.0,
170,2.8746471405029297,0.01601266860961914,62.45055239569995,59.13769297273053,100584.75,-328.0,-536.0,660.0,16.75,45.0,-27.375,-1.0,-24.0,-1.6875,14.875,-21.875,45.1875,-0.332763671875,0.24908447265625,-0.1175537109375,0.90191650390625,43.0,131.0,19.0,-363.0,-646.0,641.0,
171,2.8908491134643555,0.01620197296142578,61.72087821531579,59.15217062127323,100584.75,-311.0,-508.0,671.0,16.75,45.0,-27.375,-5.3125,-20.0625,-1.25,14.8125,-21.75,45.1875,-0.33367919921875,0.24798583984375,-0.1170654296875,0.90191650390625,50.0,138.0,30.0,-362.0,-647.0,641.0,
172,2.9080255031585693,0.017176389694213867,58.21945227156004,59.14666147638017,100584.75,-281.0,-524.0,717.0,16.75,46.0625,-28.25,-19.4375,-7.25,-2.875,14.5,-21.5,45.3125,-0.33489990234375,0.247314453125,-0.11669921875,0.9017333984375,78.0,131.0,56.0,-360.0,-648.0,640.0,
173,2.9265928268432617,0.018567323684692383,53.85805822001361,59.113108736279045,100584.75,-265.0,-523.0,725.0,16.75,46.0625,-28.25,-24.1875,-3.8125,-2.125,14.4375,-21.4375,45.75,-0.3388671875,0.24615478515625,-0.11431884765625,0.90081787109375,93.0,130.0,89.0,-358.0,-653.0,636.0,
174,2.9457852840423584,0.01919245719909668,52.10380253170847,59.067441521477164,100584.75,-259.0,-558.0,713.0,16.75,46.0625,-28.25,-32.6875,3.5625,-0.9375,14.375,-21.4375,46.375,-0.34613037109375,0.247802734375,-0.11279296875,0.8978271484375,107.0,89.0,75.0,-359.0,-664.0,625.0,
175,2.9638071060180664,0.018021821975708008,55.488285332521926,59.045677987835035,100584.75,-245.0,-584.0,688.0,15.6875,46.0625,-27.375,-35.0,8.0,2.875,14.0625,-21.5625,47.0625,-0.3489990234375,0.24835205078125,-0.11083984375,0.89678955078125,115.0,83.0,67.0,-360.0,-667.0,620.0,
176,2.9815428256988525,0.017735719680786133,56.38339001734127,59.02984135696486,100584.75,-319.0,-626.0,690.0,15.6875,46.0625,-27.375,-33.25,8.4375,7.0625,13.875,-21.75,47.75,-0.3558349609375,0.25177001953125,-0.10791015625,0.89349365234375,25.0,42.0,87.0,-365.0,-676.0,607.0,
177,3.00160551071167,0.020062685012817383,49.84377710965074,58.96844184498913,100584.75,-354.0,-644.0,691.0,15.6875,46.0625,-27.375,-31.3125,8.625,7.625,13.625,-22.0,48.375,-0.35797119140625,0.2529296875,-0.10693359375,0.8924560546875,13.0,35.0,88.0,-367.0,-679.0,603.0,
178,3.018221139907837,0.016615629196166992,60.18429926389347,58.97513526972226,100589.75,-382.0,-690.0,653.0,16.375,46.375,-25.6875,-29.4375,11.6875,4.6875,13.1875,-22.1875,48.9375,-0.3626708984375,0.254638671875,-0.1033935546875,0.8905029296875,-10.0,-5.0,57.0,-371.0,-682.0,599.0,
179,3.035309314727783,0.01708817481994629,58.52000055809022,58.97257295375622,100589.75,-377.0,-710.0,634.0,16.375,46.375,-25.6875,-27.375,10.6875,3.875,13.1875,-22.3125,49.25,-0.36614990234375,0.2567138671875,-0.102294921875,0.8885498046875,-15.0,-53.0,18.0,-373.0,-689.0,588.0,
180,3.053271770477295,0.01796245574951172,55.67167507300239,58.95315370890222,100589.75,-399.0,-769.0,572.0,16.375,46.375,-25.6875,-18.4375,5.375,3.0,13.0625,-22.4375,49.6875,-0.367431640625,0.25738525390625,-0.101806640625,0.88787841796875,-24.0,-78.0,-13.0,-374.0,-691.0,585.0,
181,3.0689406394958496,0.015668869018554688,63.820815581253804,58.97800617927031,100589.75,-414.0,-777.0,523.0,16.375,46.75,-23.6875,-5.375,3.8125,0.0,12.75,-22.5,49.875,-0.36920166015625,0.25738525390625,-0.099609375,0.88739013671875,-38.0,-84.0,-59.0,-375.0,-692.0,583.0,
182,3.08473539352417,0.015794754028320312,63.31216036710542,59.00019832562471,100589.75,-380.0,-774.0,525.0,16.375,46.75,-23.6875,0.6875,3.3125,-1.375,12.8125,-22.5,49.875,-0.369140625,0.257568359375,-0.099853515625,0.8873291015625,-4.0,-81.0,-57.0,-375.0,-692.0,584.0,
183,3.102738380432129,0.018002986907958984,55.546338233346574,58.980158028829024,100589.75,-338.0,-760.0,581.0,16.375,46.75,-23.6875,14.125,-2.375,-1.4375,12.875,-22.5,49.6875,-0.36761474609375,0.25714111328125,-0.1004638671875,0.8880615234375,36.0,-69.0,-4.0,-375.0,-690.0,585.0,
184,3.1198058128356934,0.017067432403564453,58.59112116894365,58.97802973600988,100589.75,-294.0,-702.0,627.0,16.375,47.5625,-23.6875,20.75,-4.5625,0.8125,12.8125,-22.4375,49.25,-0.36492919921875,0.255859375,-0.10028076171875,0.88958740234375,79.0,-15.0,36.0,-374.0,-686.0,591.0,
185,3.1365392208099365,0.016733407974243164,59.760689606041176,58.982205219237834,100589.75,-366.0,-700.0,635.0,16.375,47.5625,-23.6875,19.9375,-3.625,2.25,12.8125,-22.4375,49.0625,-0.36328125,0.25537109375,-0.10040283203125,0.89031982421875,83.0,-1.0,46.0,-374.0,-684.0,593.0,
186,3.1518092155456543,0.015269994735717773,65.4879073180633,59.01372427068017,100589.75,-322.0,-708.0,576.0,16.375,47.5625,-23.6875,18.8125,1.0625,-0.375,12.875,-22.4375,48.625,-0.3603515625,0.25494384765625,-0.1009521484375,0.8916015625,52.0,-27.0,-22.0,-374.0,-680.0,598.0,
187,3.1676676273345947,0.01585841178894043,63.05801698864918,59.03397136313492,100589.75,-280.0,-686.0,579.0,16.0,46.375,-23.6875,18.5625,1.125,0.3125,12.9375,-22.4375,48.3125,-0.35772705078125,0.25469970703125,-0.10137939453125,0.8927001953125,94.0,-9.0,-22.0,-374.0,-676.0,602.0,
188,3.1844120025634766,0.016744375228881836,59.721547464794746,59.03758679739259,100589.75,-289.0,-667.0,573.0,16.0,46.375,-23.6875,20.375,0.0625,2.75,12.9375,-22.4375,48.125,-0.3560791015625,0.254638671875,-0.10162353515625,0.893310546875,86.0,6.0,-31.0,-375.0,-674.0,604.0,
189,3.2016890048980713,0.017277002334594727,57.88041123300904,59.031342429217915,100589.75,-301.0,-606.0,625.0,16.0,46.375,-23.6875,22.6875,-2.0,7.6875,12.9375,-22.5625,47.625,-0.35247802734375,0.25439453125,-0.1015625,0.89483642578125,74.0,62.0,15.0,-376.0,-669.0,610.0,
190,3.2178220748901367,0.01613306999206543,61.98448283505993,59.046148474970295,100589.75,-282.0,-571.0,699.0,16.375,46.375,-26.1875,21.0,-4.6875,15.125,12.75,-22.6875,47.125,-0.34869384765625,0.25421142578125,-0.10028076171875,0.89654541015625,95.0,91.0,84.0,-378.0,-663.0,615.0,
191,3.235112428665161,0.017290353775024414,57.83571655106797,59.039679211027746,100589.75,-341.0,-555.0,748.0,16.375,46.375,-26.1875,17.1875,-5.5625,19.0,12.5625,-22.75,46.875,-0.34698486328125,0.25421142578125,-0.09906005859375,0.8973388671875,38.0,104.0,131.0,-379.0,-660.0,617.0,
192,3.252197742462158,0.01708531379699707,58.5298000307001,59.03700057753609,100589.75,-376.0,-587.0,737.0,16.375,46.375,-26.1875,4.8125,0.5625,20.1875,12.1875,-23.0,46.5625,-0.34490966796875,0.2550048828125,-0.09619140625,0.898193359375,7.0,68.0,117.0,-384.0,-655.0,619.0,
193,3.274491548538208,0.022293806076049805,44.85550814377533,58.94044835332028,100589.75,-439.0,-599.0,708.0,16.75,46.375,-26.1875,-8.75,-0.4375,19.5625,11.6875,-23.3125,46.5625,-0.34503173828125,0.25604248046875,-0.0924072265625,0.89825439453125,-50.0,54.0,89.0,-388.0,-654.0,618.0,
194,3.2971513271331787,0.022659778594970703,44.13105784810926,58.83867034052087,100589.75,-449.0,-714.0,496.0,16.75,46.375,-26.1875,-15.875,11.625,1.125,11.5,-23.625,47.0,-0.3477783203125,0.25897216796875,-0.09063720703125,0.89654541015625,-56.0,-57.0,-115.0,-393.0,-657.0,611.0,
195,3.3137733936309814,0.016622066497802734,60.16099142258814,58.845303174558296,100589.75,-424.0,-694.0,510.0,17.1875,45.375,-26.1875,-11.25,6.25,-1.1875,11.4375,-23.6875,47.1875,-0.3487548828125,0.25927734375,-0.09014892578125,0.8961181640625,-30.0,-35.0,-99.0,-394.0,-658.0,610.0,
196,3.328113317489624,0.014339923858642578,69.73537724869485,58.89222550506232,100589.75,-374.0,-693.0,552.0,17.1875,45.375,-26.1875,0.9375,-5.9375,-3.625,11.5,-23.5625,47.1875,-0.3492431640625,0.25872802734375,-0.09039306640625,0.89605712890625,17.0,-33.0,-57.0,-392.0,-659.0,610.0,
197,3.3436172008514404,0.015503883361816406,64.49996924401796,58.91822782519322,100589.75,-351.0,-682.0,579.0,17.1875,45.375,-26.1875,6.125,-11.375,-3.0625,11.5,-23.5,47.125,-0.34893798828125,0.25775146484375,-0.0904541015625,0.896484375,39.0,-23.0,-31.0,-391.0,-659.0,611.0,
198,3.3586080074310303,0.014990806579589844,66.70755137095234,58.95299468170102,100589.75,-347.0,-650.0,630.0,18.25,45.375,-25.6875,11.3125,-17.625,0.0,11.25,-23.25,46.8125,-0.3480224609375,0.2545166015625,-0.08868408203125,0.89788818359375,40.0,6.0,14.0,-387.0,-657.0,616.0,
199,3.3739585876464844,0.015350580215454102,65.14411741865341,58.9811625811368,100589.75,-348.0,-608.0,703.0,18.25,45.375,-25.6875,11.6875,-18.875,1.8125,11.1875,-23.125,46.625,-0.34722900390625,0.2530517578125,-0.08819580078125,0.898681640625,37.0,47.0,85.0,-385.0,-655.0,618.0,
200,3.3915634155273438,0.017604827880859375,56.80260021668472,58.96985416352671,100586.5,-334.0,-558.0,761.0,18.25,45.375,-25.6875,4.9375,-20.625,5.0625,11.0,-22.9375,46.375,-0.34625244140625,0.2501220703125,-0.086669921875,0.9000244140625,48.0,95.0,138.0,-382.0,-653.0,622.0,
201,3.4070193767547607,0.015455961227416992,64.69995526555293,58.99584879715467,100586.5,-388.0,-537.0,753.0,17.875,45.6875,-25.6875,-7.4375,-18.25,6.5625,10.5,-22.75,46.25,-0.34722900390625,0.24700927734375,-0.08294677734375,0.90081787109375,-8.0,116.0,129.0,-379.0,-653.0,624.0,
202,3.4240217208862305,0.017002344131469727,58.815419348505884,58.99495285553179,100586.5,-389.0,-562.0,721.0,17.875,45.6875,-25.6875,-13.0,-15.0,4.4375,10.375,-22.6875,46.375,-0.3482666015625,0.24609375,-0.0819091796875,0.90081787109375,-10.0,92.0,97.0,-378.0,-654.0,624.0,
203,3.4393818378448486,0.015360116958618164,65.10367093519596,59.02223410216117,100586.5,-352.0,-613.0,639.0,17.875,45.6875,-25.6875,-19.6875,-11.4375,-0.8125,10.1875,-22.5625,46.625,-0.35125732421875,0.24456787109375,-0.08038330078125,0.90020751953125,24.0,45.0,17.0,-376.0,-658.0,621.0,
204,3.457446575164795,0.01806473731994629,55.356465045071204,59.00308090524192,100586.5,-351.0,-602.0,652.0,17.5,46.0625,-27.375,-19.0625,-12.8125,-3.0,10.0,-22.375,46.9375,-0.35455322265625,0.2427978515625,-0.0791015625,0.89947509765625,21.0,60.0,33.0,-373.0,-663.0,618.0,
205,3.474494218826294,0.017047643661499023,58.659133183223084,59.001393322004226,100586.5,-375.0,-591.0,670.0,17.5,46.0625,-27.375,-17.625,-14.9375,-2.875,9.9375,-22.25,47.125,-0.35601806640625,0.24169921875,-0.0784912109375,0.89923095703125,-4.0,73.0,53.0,-371.0,-665.0,617.0,
206,3.4904608726501465,0.01596665382385254,62.630530543983035,59.01799433253456,100586.5,-382.0,-640.0,694.0,17.5,46.0625,-27.375,-15.625,-17.8125,-7.0,9.875,-21.9375,47.3125,-0.35894775390625,0.23895263671875,-0.07769775390625,0.89892578125,-15.0,28.0,78.0,-366.0,-669.0,616.0,
207,3.5067803859710693,0.01631951332092285,61.276337126912004,59.02850398847524,100586.5,-337.0,-673.0,697.0,16.375,46.75,-26.1875,-16.0625,-15.9375,-10.5625,9.8125,-21.5625,47.625,-0.36199951171875,0.2359619140625,-0.0775146484375,0.89849853515625,23.0,0.0,83.0,-360.0,-673.0,614.0,
208,3.5243899822235107,0.017609596252441406,56.78721906309234,59.0173054199792,100586.5,-274.0,-682.0,674.0,16.375,46.75,-26.1875,-17.75,-11.9375,-11.1875,9.875,-21.25,47.75,-0.363525390625,0.234619140625,-0.07763671875,0.898193359375,46.0,-9.0,74.0,-358.0,-676.0,613.0,
209,3.5403661727905273,0.0159761905670166,62.59314420450984,59.03344168359443,100586.5,-277.0,-681.0,672.0,16.375,46.75,-26.1875,-18.9375,-9.125,-9.875,9.875,-21.0625,48.125,-0.36688232421875,0.23260498046875,-0.07781982421875,0.8973388671875,75.0,0.0,61.0,-353.0,-681.0,610.0,
210,3.5574817657470703,0.01711559295654297,58.426255084415224,59.03052041530283,100586.5,-296.0,-688.0,654.0,17.1875,47.5625,-24.875,-18.9375,-6.25,-7.25,9.625,-20.875,48.5,-0.3707275390625,0.2305908203125,-0.075927734375,0.896484375,53.0,-1.0,47.0,-350.0,-686.0,606.0,
211,3.573225975036621,0.01574420928955078,63.51541583378763,59.05028158702935,100586.5,-294.0,-695.0,637.0,17.1875,47.5625,-24.875,-17.75,-5.75,-5.75,9.625,-20.8125,48.625,-0.3721923828125,0.23004150390625,-0.0758056640625,0.89599609375,54.0,-6.0,32.0,-348.0,-688.0,605.0,
212,3.5904769897460938,0.017251014709472656,57.96760462159323,59.04507969426979,100586.5,-281.0,-698.0,611.0,17.1875,47.5625,-24.875,-14.6875,-4.5,-3.0625,9.625,-20.6875,48.9375,-0.374755859375,0.229248046875,-0.075439453125,0.8951416015625,65.0,-6.0,8.0,-347.0,-691.0,602.0,
213,3.606687307357788,0.016210317611694336,61.68910591107647,59.05696331519269,100586.5,-289.0,-694.0,614.0,15.6875,47.1875,-27.0,-11.0,-3.0,-0.25,9.5625,-20.625,49.125,-0.37652587890625,0.22900390625,-0.07525634765625,0.89447021484375,62.0,5.0,20.0,-346.0,-694.0,599.0,
214,3.6229333877563477,0.01624608039855957,61.553308580737,59.06815751104064,100586.5,-283.0,-688.0,620.0,15.6875,47.1875,-27.0,-9.4375,-1.875,0.8125,9.5625,-20.625,49.25,-0.37725830078125,0.22894287109375,-0.074951171875,0.89422607421875,44.0,14.0,30.0,-346.0,-695.0,598.0,
215,3.640101194381714,0.01716780662536621,58.24855916785868,59.064292039968585,100586.5,-311.0,-682.0,599.0,15.6875,47.1875,-27.0,-6.5625,3.125,-0.3125,9.5625,-20.5625,49.3125,-0.378173828125,0.22845458984375,-0.0750732421875,0.89398193359375,33.0,13.0,1.0,-344.0,-696.0,597.0,
216,3.6567718982696533,0.016670703887939453,59.98546952318298,59.06849155732382,100586.5,-314.0,-683.0,585.0,15.6875,47.5625,-23.1875,-1.625,4.6875,-0.5,9.4375,-20.5625,49.375,-0.37890625,0.22808837890625,-0.073974609375,0.893798828125,51.0,19.0,-21.0,-344.0,-697.0,596.0,
217,3.673039436340332,0.01626753807067871,61.472116779762864,59.079136982043956,100586.5,-293.0,-677.0,575.0,15.6875,47.5625,-23.1875,2.5625,2.9375,0.4375,9.4375,-20.5625,49.375,-0.37872314453125,0.22833251953125,-0.0740966796875,0.89385986328125,25.0,19.0,-15.0,-345.0,-697.0,597.0,
218,3.6905980110168457,0.017558574676513672,56.95223094261738,59.069017906920706,100586.5,-379.0,-670.0,615.0,15.6875,47.5625,-23.1875,9.875,-1.4375,0.9375,9.4375,-20.5625,49.25,-0.37744140625,0.228271484375,-0.07427978515625,0.8944091796875,-34.0,24.0,16.0,-345.0,-695.0,599.0,
219,3.7054531574249268,0.014855146408081055,67.31673808721331,59.10208298306817,100586.5,-343.0,-687.0,665.0,15.6875,47.5625,-23.1875,12.9375,-4.6875,-3.8125,9.375,-20.5,48.9375,-0.37603759765625,0.2266845703125,-0.07342529296875,0.89544677734375,37.0,-9.0,85.0,-343.0,-693.0,602.0,
220,3.72135591506958,0.01590275764465332,62.88217567952505,59.11823674513717,100586.5,-306.0,-702.0,687.0,15.6875,47.875,-23.1875,11.375,-4.625,-4.5625,9.375,-20.4375,48.875,-0.37530517578125,0.22613525390625,-0.0738525390625,0.8958740234375,76.0,-7.0,94.0,-342.0,-692.0,604.0,
221,3.7400732040405273,0.018717288970947266,53.426540646574786,59.08975251105947,100586.5,-258.0,-679.0,663.0,15.6875,47.875,-23.1875,7.4375,-0.6875,-2.0,9.4375,-20.375,48.6875,-0.3741455078125,0.22552490234375,-0.074462890625,0.89642333984375,83.0,11.0,56.0,-341.0,-690.0,606.0,
222,3.756014347076416,0.015941143035888672,62.730758876491876,59.1052055412938,100586.5,-274.0,-674.0,654.0,15.6875,47.875,-23.1875,5.75,1.5625,0.0,9.5,-20.375,48.625,-0.37359619140625,0.2252197265625,-0.07318115234375,0.8968505859375,58.0,19.0,36.0,-342.0,-689.0,607.0,
223,3.7734224796295166,0.017408132553100586,57.44441553105526,59.09754372955733,100585.0,-284.0,-670.0,643.0,16.375,47.875,-24.875,5.8125,1.25,2.9375,9.3125,-20.4375,48.5,-0.37310791015625,0.225341796875,-0.0731201171875,0.89703369140625,2.0,4.0,20.0,-342.0,-688.0,608.0,
224,3.787565231323242,0.014142751693725586,70.70759790286418,59.14089562009794,100585.0,-334.0,-707.0,619.0,16.375,47.875,-24.875,7.5,-0.4375,0.5,9.3125,-20.4375,48.375,-0.3719482421875,0.225341796875,-0.0732421875,0.89752197265625,9.0,-20.0,9.0,-343.0,-687.0,609.0,
225,3.805621862411499,0.018056631088256836,55.38131643229683,59.123057448861935,100585.0,-303.0,-704.0,630.0,16.375,47.875,-24.875,8.5,-2.625,-0.75,9.3125,-20.4375,48.3125,-0.371337890625,0.22503662109375,-0.0733642578125,0.8978271484375,38.0,-18.0,19.0,-342.0,-685.0,612.0,
226,3.823946475982666,0.018324613571166992,54.5714099845171,59.101245642284574,100585.0,-301.0,-663.0,674.0,15.25,48.6875,-24.875,8.625,-5.0,-1.0,9.3125,-20.375,48.1875,-0.3707275390625,0.224609375,-0.07330322265625,0.898193359375,40.0,6.0,52.0,-341.0,-684.0,613.0,
227,3.8379805088043213,0.014034032821655273,71.25535565635458,59.14568859306668,100585.0,-306.0,-644.0,674.0,15.25,48.6875,-24.875,7.625,-6.0,0.6875,9.3125,-20.3125,47.9375,-0.368896484375,0.22332763671875,-0.07330322265625,0.8992919921875,30.0,38.0,72.0,-340.0,-682.0,615.0,
228,3.8543899059295654,0.01640939712524414,60.94069101792927,59.15333050484759,100585.0,-314.0,-651.0,680.0,15.25,48.6875,-24.875,5.875,-5.375,0.375,9.25,-20.25,47.8125,-0.36846923828125,0.22283935546875,-0.0732421875,0.8995361328125,25.0,30.0,63.0,-340.0,-682.0,616.0,
229,3.87052321434021,0.01613330841064453,61.98356682626943,59.16512763741079,100585.0,-329.0,-649.0,675.0,14.875,48.25,-25.6875,3.8125,-3.5,0.0,9.25,-20.25,47.8125,-0.3681640625,0.22259521484375,-0.0732421875,0.89971923828125,10.0,32.0,58.0,-339.0,-681.0,617.0,
230,3.887014150619507,0.016490936279296875,60.63937080730974,59.17138221977991,100585.0,-307.0,-661.0,639.0,14.875,48.25,-25.6875,0.3125,1.0,-4.4375,9.375,-20.0625,47.625,-0.3671875,0.22113037109375,-0.07427978515625,0.90045166015625,31.0,3.0,36.0,-336.0,-680.0,620.0,
231,3.9036061763763428,0.016592025756835938,60.26991608230831,59.17605146696272,100585.0,-308.0,-685.0,672.0,14.875,48.25,-25.6875,0.1875,0.125,-4.875,9.5,-19.9375,47.5,-0.366455078125,0.2197265625,-0.074951171875,0.9010009765625,26.0,-5.0,49.0,-334.0,-679.0,622.0,
232,3.920999526977539,0.01739335060119629,57.49323537071813,59.16858658201235,100585.0,-203.0,-682.0,669.0,15.25,46.0625,-24.875,-0.3125,-0.1875,-3.5625,9.375,-19.875,47.5,-0.36676025390625,0.21923828125,-0.07427978515625,0.90106201171875,130.0,-2.0,46.0,-334.0,-680.0,622.0,
233,3.9369943141937256,0.015994787216186523,62.52036907299477,59.18220383503833,100585.0,-338.0,-633.0,677.0,15.25,46.0625,-24.875,-0.9375,-1.5,2.6875,9.3125,-19.875,47.4375,-0.36669921875,0.21893310546875,-0.07354736328125,0.9012451171875,-25.0,43.0,39.0,-334.0,-679.0,622.0,
234,3.955364942550659,0.018370628356933594,54.43471941026839,59.16015422058694,100585.0,-360.0,-653.0,647.0,15.25,46.0625,-24.875,-1.8125,-1.0,0.5625,9.3125,-19.875,47.5,-0.3668212890625,0.2188720703125,-0.073486328125,0.90118408203125,-26.0,26.0,25.0,-333.0,-679.0,622.0,
235,3.9739620685577393,0.018597126007080078,53.77174944232199,59.13493786448948,100585.0,-341.0,-651.0,651.0,15.25,47.5625,-25.6875,-1.75,-0.5,-2.0,9.1875,-19.875,47.5,-0.36724853515625,0.21844482421875,-0.07269287109375,0.90118408203125,-23.0,28.0,29.0,-333.0,-680.0,622.0,
236,3.990814447402954,0.016852378845214844,59.33880368966103,59.13579874744073,100585.0,-291.0,-653.0,635.0,15.25,47.5625,-25.6875,-1.375,3.1875,-5.5,9.375,-19.8125,47.625,-0.3677978515625,0.21844482421875,-0.07403564453125,0.90081787109375,66.0,27.0,45.0,-332.0,-681.0,621.0,
237,4.008606433868408,0.0177919864654541,56.205078726968175,59.12279090249549,100585.0,-192.0,-662.0,686.0,15.25,47.5625,-25.6875,-0.75,3.5,-3.9375,9.4375,-19.8125,47.625,-0.367919921875,0.21856689453125,-0.074462890625,0.9007568359375,140.0,19.0,65.0,-332.0,-681.0,621.0,
238,4.02589225769043,0.017285823822021484,57.850873079363325,59.11732971625416,100585.0,-221.0,-657.0,682.0,15.6875,47.875,-26.1875,-1.0625,2.0,10.1875,9.125,-19.9375,47.625,-0.36810302734375,0.21923828125,-0.07220458984375,0.90069580078125,71.0,34.0,22.0,-335.0,-681.0,620.0,
239,4.039874315261841,0.013982057571411133,71.52023190382812,59.160256322110214,100585.0,-263.0,-646.0,643.0,15.6875,47.875,-26.1875,-1.375,1.4375,13.25,9.0,-20.0625,47.625,-0.36798095703125,0.21978759765625,-0.07122802734375,0.90069580078125,39.0,48.0,15.0,-336.0,-680.0,620.0,
240,4.055592060089111,0.015717744827270508,63.622358740993555,59.17754952768268,100585.0,-341.0,-626.0,637.0,15.6875,47.875,-26.1875,-1.1875,1.875,14.125,8.875,-20.1875,47.625,-0.3677978515625,0.2203369140625,-0.0701904296875,0.90069580078125,-3.0,53.0,17.0,-338.0,-680.0,620.0,
241,4.073590278625488,0.017998218536376953,55.561054444297255,59.161570878777304,100585.0,-432.0,-633.0,660.0,14.875,46.875,-25.375,-0.9375,4.125,11.6875,8.6875,-20.3125,47.625,-0.36773681640625,0.2208251953125,-0.06890869140625,0.90069580078125,-105.0,55.0,25.0,-340.0,-679.0,619.0,
242,4.09242057800293,0.018830299377441406,53.1059002279058,59.133707151402845,100585.0,-385.0,-646.0,681.0,14.875,46.875,-25.375,-7.125,7.0,-3.4375,8.75,-20.4375,47.75,-0.36859130859375,0.22271728515625,-0.06903076171875,0.89990234375,7.0,3.0,96.0,-343.0,-680.0,616.0,
243,4.107393264770508,0.014972686767578125,66.78828025477706,59.161610378103674,100585.0,-205.0,-716.0,653.0,14.875,46.875,-25.375,-9.75,6.625,-5.125,8.8125,-20.4375,47.875,-0.369384765625,0.22308349609375,-0.0694580078125,0.8994140625,137.0,-34.0,38.0,-343.0,-682.0,615.0,
244,4.123782396316528,0.016389131546020508,61.016045736896466,59.168980452981046,100585.0,-174.0,-694.0,581.0,15.6875,47.875,-26.5625,-11.875,7.0,-2.375,8.8125,-20.5,48.0625,-0.37030029296875,0.22357177734375,-0.069580078125,0.89892578125,183.0,-39.0,-17.0,-343.0,-683.0,613.0,
245,4.13932204246521,0.01553964614868164,64.35152965724632,59.18843653297584,100585.0,-224.0,-667.0,578.0,15.6875,47.875,-26.5625,-2.4375,-2.6875,19.8125,8.375,-20.75,48.125,-0.37103271484375,0.224853515625,-0.0662841796875,0.8985595703125,100.0,19.0,-30.0,-348.0,-683.0,611.0,
246,4.156499147415161,0.017177104949951172,58.217028009882576,59.18442210026247,100586.25,-260.0,-649.0,582.0,15.6875,47.875,-26.5625,1.25,-3.0625,24.375,8.1875,-20.9375,48.0625,-0.3704833984375,0.225341796875,-0.0643310546875,0.8988037109375,89.0,31.0,-29.0,-350.0,-681.0,611.0,
247,4.173174858093262,0.016675710678100586,59.967459216790814,59.18755106102963,100586.25,-409.0,-620.0,668.0,16.0,47.1875,-24.5,4.625,-2.8125,28.6875,7.6875,-21.125,47.9375,-0.3699951171875,0.22540283203125,-0.0606689453125,0.89923095703125,41.0,21.0,2.0,-353.0,-679.0,612.0,
248,4.1923041343688965,0.019129276275634766,52.27589301293716,59.156013507434515,100586.25,-470.0,-609.0,711.0,16.0,47.1875,-24.5,4.125,3.625,26.125,6.875,-21.75,47.5625,-0.3670654296875,0.22833251953125,-0.05450439453125,0.90008544921875,-139.0,54.0,167.0,-363.0,-672.0,614.0,
249,4.207420110702515,0.015115976333618164,66.15517105408432,59.18115934432427,100586.25,-474.0,-631.0,836.0,16.0,47.1875,-24.5,-1.75,5.25,20.0625,6.75,-21.9375,47.5625,-0.36676025390625,0.2293701171875,-0.0531005859375,0.9000244140625,-107.0,39.0,222.0,-366.0,-671.0,613.0,
250,4.223556995391846,0.016136884689331055,61.96982994252619,59.191813978777844,100586.25,-438.0,-659.0,727.0,17.5,46.75,-25.375,-9.9375,6.25,14.6875,6.375,-22.0625,47.625,-0.36767578125,0.2296142578125,-0.05023193359375,0.8997802734375,-48.0,10.0,176.0,-368.0,-671.0,612.0,
251,4.241770505905151,0.018213510513305664,54.904297514170146,59.173404042149876,100586.25,-479.0,-680.0,647.0,17.5,46.75,-25.375,-22.6875,9.125,6.25,6.125,-22.375,48.25,-0.3720703125,0.23211669921875,-0.0482177734375,0.89739990234375,-106.0,-17.0,-33.0,-373.0,-676.0,603.0,
252,4.2569580078125,0.015187501907348633,65.84361313009215,59.1972012731913,100586.25,-451.0,-699.0,569.0,17.5,46.75,-25.375,-21.0,-3.4375,-0.5,6.0625,-22.3125,48.4375,-0.3736572265625,0.23193359375,-0.04766845703125,0.8968505859375,-78.0,-21.0,-31.0,-373.0,-678.0,601.0,
253,4.273022174835205,0.016064167022705078,62.25034877853305,59.20867939557493,100586.25,-362.0,-694.0,593.0,17.5,46.375,-25.375,-15.3125,-12.5625,-2.875,5.9375,-22.25,48.5625,-0.375,0.23077392578125,-0.046875,0.8966064453125,-33.0,-19.0,-24.0,-371.0,-680.0,600.0,
254,4.29182243347168,0.01880025863647461,53.190757602658074,59.18231798665956,100586.25,-308.0,-663.0,657.0,17.5,46.375,-25.375,-4.4375,-21.375,-4.0625,5.75,-21.75,48.5625,-0.376708984375,0.22589111328125,-0.04534912109375,0.897216796875,62.0,34.0,83.0,-363.0,-682.0,602.0,
255,4.310762882232666,0.018940448760986328,52.79705948994235,59.154262706263324,100586.25,-295.0,-638.0,699.0,17.875,47.1875,-24.875,-6.5,-13.375,2.0625,5.5625,-21.5625,48.5625,-0.377685546875,0.22344970703125,-0.04364013671875,0.89752197265625,65.0,45.0,96.0,-360.0,-683.0,603.0,
256,4.329795837402344,0.019032955169677734,52.54044845296254,59.125189642564514,100586.25,-276.0,-616.0,602.0,17.875,47.1875,-24.875,-8.875,-10.0625,4.6875,5.3125,-21.5625,48.625,-0.37884521484375,0.2225341796875,-0.041748046875,0.8973388671875,71.0,92.0,-47.0,-360.0,-684.0,602.0,
257,4.347672939300537,0.01787710189819336,55.93747832813209,59.11208216166939,100586.25,-334.0,-571.0,563.0,17.875,47.1875,-24.875,-5.6875,-6.75,11.6875,5.0,-21.625,48.625,-0.37896728515625,0.22222900390625,-0.03924560546875,0.8974609375,-5.0,85.0,-15.0,-361.0,-684.0,602.0,
258,4.3661229610443115,0.018450021743774414,54.20047812883634,59.091327088573394,100586.25,-360.0,-607.0,575.0,17.875,47.1875,-24.0625,2.125,-7.625,13.25,4.625,-21.6875,48.5625,-0.37896728515625,0.22137451171875,-0.03643798828125,0.89776611328125,2.0,76.0,-27.0,-362.0,-683.0,602.0,
259,4.385964632034302,0.019841670989990234,50.39898103866766,59.05200377319741,100586.25,-352.0,-620.0,588.0,17.875,47.1875,-24.0625,8.75,-7.5625,12.25,4.375,-21.75,48.3125,-0.37646484375,0.22076416015625,-0.033447265625,0.89910888671875,16.0,23.0,28.0,-364.0,-678.0,607.0,
260,4.401121139526367,0.01515650749206543,65.97826052759906,59.07585630055624,100586.25,-337.0,-663.0,612.0,17.875,47.1875,-24.0625,10.8125,-5.6875,9.9375,4.125,-21.8125,48.0,-0.37542724609375,0.22064208984375,-0.03271484375,0.89959716796875,27.0,12.0,4.0,-365.0,-676.0,608.0,
261,4.419088840484619,0.017967700958251953,55.65542315755951,59.06194906264375,100586.25,-348.0,-646.0,601.0,17.5,47.1875,-24.875,11.1875,-5.25,9.1875,4.0,-21.875,47.875,-0.37445068359375,0.220458984375,-0.03192138671875,0.90008544921875,17.0,28.0,-8.0,-365.0,-674.0,610.0,
262,4.43691873550415,0.01782989501953125,56.08557980316645,59.04998843081807,100586.25,-313.0,-657.0,590.0,17.5,47.1875,-24.875,14.9375,-6.4375,7.625,3.875,-21.875,47.5,-0.37060546875,0.2196044921875,-0.0303955078125,0.90191650390625,73.0,5.0,-37.0,-366.0,-668.0,616.0,
263,4.454837799072266,0.017919063568115234,55.80648766598366,59.036941828672326,100586.25,-274.0,-656.0,589.0,17.5,47.1875,-24.875,20.875,-5.625,8.875,3.75,-21.9375,47.0625,-0.36883544921875,0.21942138671875,-0.0299072265625,0.9027099609375,92.0,9.0,-30.0,-366.0,-665.0,619.0,
264,4.4721434116363525,0.017305612564086914,57.784721361162774,59.032096178553154,100586.25,-311.0,-692.0,647.0,17.875,46.75,-24.875,27.125,-7.3125,15.875,3.5,-22.0625,46.4375,-0.36456298828125,0.2188720703125,-0.0277099609375,0.9046630859375,57.0,-29.0,15.0,-367.0,-662.0,622.0,
265,4.490779876708984,0.018636465072631836,53.658244527741886,59.00979501898948,100586.25,-335.0,-674.0,650.0,17.875,46.75,-24.875,29.5625,-7.125,18.0,3.3125,-22.125,46.0625,-0.35931396484375,0.21875,-0.02557373046875,0.9068603515625,15.0,-1.0,36.0,-371.0,-650.0,633.0,
266,4.508134365081787,0.017354488372802734,57.62198104135184,59.00445249820636,100586.25,-395.0,-610.0,735.0,17.875,46.75,-24.875,29.6875,-4.875,17.625,3.0625,-22.3125,45.375,-0.35675048828125,0.2188720703125,-0.02459716796875,0.90789794921875,-22.0,34.0,97.0,-372.0,-645.0,637.0,
267,4.522879600524902,0.014745235443115234,67.81851696148497,59.03318761105499,100588.75,-398.0,-594.0,754.0,17.875,44.5625,-25.6875,22.125,2.9375,11.1875,2.875,-22.5,44.8125,-0.35260009765625,0.219482421875,-0.0230712890625,0.90936279296875,-22.0,44.0,112.0,-375.0,-638.0,642.0,
268,4.539927244186401,0.017047643661499023,58.659133183223084,59.03178301881095,100588.75,-350.0,-605.0,713.0,17.875,44.5625,-25.6875,17.0625,4.6875,8.1875,2.875,-22.5625,44.625,-0.3499755859375,0.22064208984375,-0.02288818359375,0.91009521484375,64.0,2.0,19.0,-378.0,-634.0,644.0,
269,4.557764053344727,0.017836809158325195,56.06383917233636,59.020167970870204,100588.75,-288.0,-640.0,631.0,17.875,44.5625,-25.6875,12.1875,10.1875,4.5625,2.875,-22.75,44.375,-0.34893798828125,0.2215576171875,-0.02301025390625,0.9102783203125,91.0,-7.0,-14.0,-379.0,-632.0,645.0,
270,4.572880268096924,0.015116214752197266,66.15412763004322,59.04375014663674,100588.75,-354.0,-642.0,601.0,19.0,45.0,-25.6875,15.875,8.875,10.3125,2.625,-23.0,44.125,-0.34686279296875,0.22283935546875,-0.02093505859375,0.91082763671875,29.0,-13.0,-45.0,-383.0,-628.0,647.0,
271,4.589969635009766,0.017089366912841797,58.515918412902145,59.04178492444938,100588.75,-403.0,-616.0,655.0,19.0,45.0,-25.6875,23.625,5.0,12.8125,2.5625,-23.125,43.9375,-0.34503173828125,0.22369384765625,-0.02056884765625,0.91131591796875,-15.0,5.0,3.0,-387.0,-622.0,651.0,
272,4.607151031494141,0.017181396484375,58.202486678507995,59.0386549389478,100588.75,-392.0,-604.0,687.0,19.0,45.0,-25.6875,25.6875,6.125,11.375,2.5,-23.375,43.375,-0.34075927734375,0.22515869140625,-0.01995849609375,0.91259765625,-2.0,14.0,33.0,-389.0,-618.0,653.0,
273,4.6223485469818115,0.015197515487670898,65.80022904475786,59.06088587332015,100588.75,-318.0,-607.0,668.0,19.0,45.0,-27.0,25.3125,8.625,9.5625,2.375,-23.625,42.875,-0.3365478515625,0.2266845703125,-0.0194091796875,0.91375732421875,75.0,4.0,10.0,-393.0,-611.0,657.0,
274,4.640960931777954,0.018612384796142578,53.72766633361515,59.03949721357178,100588.75,-379.0,-548.0,712.0,19.0,45.0,-27.0,26.625,9.8125,14.1875,2.3125,-23.9375,42.375,-0.33197021484375,0.22882080078125,-0.0189208984375,0.9149169921875,70.0,16.0,1.0,-395.0,-608.0,659.0,
275,4.65777850151062,0.016817569732666016,59.46162352207321,59.04102136046432,100588.75,-415.0,-526.0,749.0,19.0,45.0,-27.0,26.9375,9.0625,16.5,2.25,-24.125,42.0625,-0.32952880859375,0.22991943359375,-0.0184326171875,0.91552734375,-14.0,73.0,85.0,-400.0,-600.0,663.0,
276,4.673316717147827,0.015538215637207031,64.35745412140183,59.05869785954623,100588.75,-482.0,-463.0,880.0,20.5,43.5,-28.6875,19.5625,8.6875,16.5625,1.9375,-24.4375,41.5625,-0.32574462890625,0.231689453125,-0.015869140625,0.91650390625,-76.0,128.0,213.0,-406.0,-592.0,667.0,
277,4.6906797885894775,0.01736307144165039,57.59349682805591,59.05327425543494,100588.75,-437.0,-501.0,789.0,20.5,43.5,-28.6875,1.0,10.0625,8.3125,1.8125,-24.6875,41.4375,-0.3243408203125,0.23370361328125,-0.0150146484375,0.91650390625,-27.0,88.0,122.0,-410.0,-589.0,667.0,
278,4.706472635269165,0.0157928466796875,63.31980676328502,59.06759085705405,100588.75,-421.0,-526.0,689.0,20.5,43.5,-28.6875,-7.5625,9.9375,4.8125,1.8125,-24.8125,41.5625,-0.3248291015625,0.234619140625,-0.01470947265625,0.91607666015625,-9.0,63.0,23.0,-412.0,-590.0,665.0,
279,4.724108934402466,0.01763629913330078,56.7012383063862,59.058756661649596,100588.75,-429.0,-556.0,625.0,20.875,43.875,-29.5625,-9.875,5.75,0.6875,1.75,-24.9375,41.75,-0.326416015625,0.2357177734375,-0.01409912109375,0.915283203125,-15.0,36.0,-37.0,-414.0,-592.0,662.0,
280,4.740242004394531,0.01613306999206543,61.98448283505993,59.068714158564205,100588.75,-413.0,-541.0,680.0,20.875,43.875,-29.5625,-4.0625,-2.0,-0.25,1.6875,-24.9375,41.875,-0.3272705078125,0.23565673828125,-0.01385498046875,0.91497802734375,0.0,52.0,18.0,-413.0,-593.0,661.0,
281,4.756773233413696,0.01653122901916504,60.49157015734745,59.07365901450393,100588.75,-438.0,-545.0,708.0,20.875,43.875,-29.5625,-2.3125,-3.5,-0.625,1.6875,-24.9375,41.875,-0.32745361328125,0.2353515625,-0.01373291015625,0.91497802734375,-25.0,48.0,47.0,-413.0,-593.0,661.0,
282,4.774078369140625,0.01730513572692871,57.78631359960321,59.06899262962087,100588.75,-462.0,-557.0,733.0,20.875,42.375,-29.5625,-0.75,-5.8125,-2.125,1.6875,-24.8125,41.875,-0.32769775390625,0.23443603515625,-0.013671875,0.91510009765625,-50.0,36.0,70.0,-412.0,-594.0,662.0,
283,4.788694143295288,0.014615774154663086,68.41922907524918,59.097530878273346,100588.75,-412.0,-578.0,721.0,20.875,42.375,-29.5625,-1.5,-8.125,-5.8125,1.6875,-24.625,41.875,-0.32806396484375,0.23297119140625,-0.013916015625,0.91534423828125,-2.0,16.0,58.0,-410.0,-594.0,662.0,
284,4.80505633354187,0.01636219024658203,61.11651221075946,59.10440591872518,100588.75,-402.0,-598.0,704.0,20.875,42.375,-29.5625,-2.75,-7.1875,-7.4375,1.75,-24.5625,41.9375,-0.32843017578125,0.232177734375,-0.01422119140625,0.9154052734375,5.0,-2.0,41.0,-407.0,-596.0,663.0,
285,4.822712659835815,0.017656326293945312,56.63692340931187,59.095372273268,100588.75,-384.0,-623.0,704.0,22.375,42.375,-28.1875,-2.8125,-5.5,-8.4375,1.5625,-24.3125,42.0,-0.32989501953125,0.2298583984375,-0.01251220703125,0.91552734375,20.0,-25.0,41.0,-404.0,-598.0,663.0,
286,4.840898275375366,0.01818561553955078,54.98851539147307,59.07994420267453,100588.75,-369.0,-634.0,684.0,22.375,42.375,-28.1875,-1.25,-3.625,-4.9375,1.625,-24.1875,42.0625,-0.3304443359375,0.2288818359375,-0.01312255859375,0.91558837890625,33.0,-35.0,21.0,-402.0,-599.0,663.0,
287,4.855315685272217,0.014417409896850586,69.36058606604819,59.11047161579343,100588.75,-362.0,-626.0,668.0,22.375,42.375,-28.1875,0.5625,-3.5625,-2.625,1.625,-24.1875,42.0625,-0.3304443359375,0.228515625,-0.01324462890625,0.9156494140625,38.0,-27.0,4.0,-401.0,-599.0,664.0,
288,4.8727147579193115,0.017399072647094727,57.474327527851244,59.104629412573765,100588.75,-360.0,-626.0,669.0,20.5,43.5,-28.1875,6.375,-5.75,1.375,1.5625,-24.0625,41.9375,-0.32977294921875,0.22760009765625,-0.01263427734375,0.9161376953125,40.0,-28.0,3.0,-400.0,-598.0,665.0,
289,4.888542652130127,0.01582789421081543,63.1795984153524,59.11782315616527,100588.75,-393.0,-581.0,688.0,20.5,43.5,-28.1875,10.4375,-7.75,4.4375,1.5,-24.0625,41.6875,-0.32818603515625,0.2266845703125,-0.01202392578125,0.91693115234375,6.0,13.0,19.0,-399.0,-595.0,668.0,
290,4.906725645065308,0.018182992935180664,54.99644660066872,59.102550453713036,100584.0,-370.0,-555.0,705.0,20.5,43.5,-28.1875,11.75,-9.3125,4.8125,1.4375,-24.0,41.5,-0.3271484375,0.22607421875,-0.0115966796875,0.91748046875,29.0,38.0,35.0,-399.0,-593.0,670.0,
291,4.923898696899414,0.017173051834106445,58.23076816282331,59.09950994386686,100584.0,-379.0,-537.0,709.0,20.5,43.0625,-29.0625,11.4375,-9.625,4.3125,1.25,-23.9375,41.1875,-0.3253173828125,0.2247314453125,-0.010498046875,0.91845703125,18.0,52.0,35.0,-398.0,-590.0,674.0,
292,4.942109107971191,0.018210411071777344,54.91364231474208,59.08408608968779,100584.0,-394.0,-507.0,715.0,20.5,43.0625,-29.0625,11.125,-9.25,2.9375,1.1875,-23.8125,40.875,-0.32342529296875,0.223388671875,-0.00982666015625,0.91943359375,2.0,80.0,38.0,-396.0,-587.0,677.0,
293,4.958104610443115,0.015995502471923828,62.51757340885378,59.095162974750956,100584.0,-374.0,-546.0,714.0,20.5,42.0,-29.875,10.0,-8.5,0.0625,1.125,-23.6875,40.625,-0.32196044921875,0.221923828125,-0.00921630859375,0.92034912109375,20.0,38.0,33.0,-394.0,-585.0,680.0,
294,4.9748804569244385,0.016775846481323242,59.60951068032915,59.09689741203473,100584.0,-420.0,-510.0,735.0,20.5,42.0,-29.875,9.0625,-8.5,-0.75,1.125,-23.625,40.5625,-0.3212890625,0.22125244140625,-0.00921630859375,0.92071533203125,-26.0,73.0,52.0,-393.0,-584.0,682.0,
295,4.990546226501465,0.015665769577026367,63.8334424033969,59.11176584908714,100584.0,-380.0,-545.0,703.0,20.5,42.0,-29.875,7.3125,-8.125,-4.875,1.0625,-23.5,39.875,-0.3165283203125,0.21929931640625,-0.00897216796875,0.9228515625,10.0,30.0,13.0,-391.0,-576.0,689.0,
296,5.007341623306274,0.01679539680480957,59.54012350060331,59.113202626777344,100584.0,-366.0,-547.0,743.0,19.75,42.6875,-29.875,6.5,-8.0625,-6.3125,1.125,-23.375,39.5625,-0.31439208984375,0.218017578125,-0.0091552734375,0.92388916015625,10.0,39.0,48.0,-389.0,-573.0,693.0,
297,5.023815631866455,0.016474008560180664,60.70168024660984,59.118411534871186,100584.0,-328.0,-564.0,722.0,19.75,42.6875,-29.875,6.375,-7.0,-8.5625,1.25,-23.125,39.25,-0.3121337890625,0.2156982421875,-0.0101318359375,0.9251708984375,56.0,6.0,23.0,-385.0,-570.0,698.0,
298,5.042405843734741,0.018590211868286133,53.79174842573711,59.09877333064515,100584.0,-317.0,-590.0,704.0,19.75,42.6875,-29.875,7.5625,-4.9375,-8.6875,1.375,-22.875,39.125,-0.31146240234375,0.21435546875,-0.01153564453125,0.92572021484375,64.0,-20.0,4.0,-382.0,-570.0,700.0,
299,5.056832313537598,0.014426469802856445,69.31702721909137,59.12792464949845,100584.0,-330.0,-590.0,798.0,19.375,43.5,-30.75,6.25,-1.3125,-4.875,1.5,-22.8125,39.0,-0.31060791015625,0.213623046875,-0.01251220703125,0.9261474609375,50.0,-24.0,32.0,-381.0,-569.0,701.0,
300,5.073798894882202,0.016966581344604492,58.939392661917005,59.12729420604383,100584.0,-315.0,-586.0,764.0,19.375,43.5,-30.75,6.25,-1.3125,-4.875,1.5625,-22.75,39.0,-0.3101806640625,0.21337890625,-0.01300048828125,0.92633056640625,64.0,-17.0,61.0,-379.0,-569.0,702.0,
301,5.088512420654297,0.014713525772094727,67.96467518999238,59.152847653125406,100584.0,-357.0,-606.0,723.0,19.375,43.5,-30.75,2.9375,0.625,-3.75,1.6875,-22.6875,38.9375,-0.309814453125,0.2132568359375,-0.01373291015625,0.92645263671875,22.0,-37.0,19.0,-379.0,-568.0,703.0,
302,5.107124328613281,0.018611907958984375,53.729042836646855,59.13308166554875,100584.0,-343.0,-579.0,797.0,19.75,42.375,-30.0,-0.5625,-0.1875,-5.5,1.5625,-22.625,38.9375,-0.31011962890625,0.21246337890625,-0.012939453125,0.92657470703125,34.0,246.0,36.0,-378.0,-568.0,703.0,
303,5.1237242221832275,0.01659989356994629,60.241350089766605,59.136672244801495,100584.0,-315.0,-597.0,695.0,19.75,42.375,-30.0,-0.5625,-0.1875,-5.5,1.625,-22.625,38.9375,-0.31024169921875,0.21234130859375,-0.01336669921875,0.92657470703125,62.0,-28.0,-7.0,-377.0,-569.0,703.0,
304,5.138401985168457,0.014677762985229492,68.13027305361987,59.16236232149005,100584.0,-325.0,-574.0,722.0,19.75,42.375,-30.0,1.75,0.0625,-4.3125,1.75,-22.5625,38.9375,-0.310302734375,0.2120361328125,-0.01422119140625,0.92657470703125,51.0,-4.0,18.0,-376.0,-569.0,703.0,
305,5.156625032424927,0.018223047256469727,54.87556421964335,59.1472131640668,100584.0,-292.0,-595.0,714.0,19.0,42.6875,-30.75,0.875,2.5,-2.375,1.8125,-22.5625,39.0,-0.310302734375,0.212158203125,-0.01470947265625,0.92657470703125,84.0,-25.0,17.0,-376.0,-569.0,703.0,
306,5.172854423522949,0.01622939109802246,61.616606190595114,59.15496067480671,100584.0,-303.0,-581.0,718.0,19.0,42.6875,-30.75,1.125,3.8125,-0.6875,1.8125,-22.5625,39.0,-0.3101806640625,0.21240234375,-0.014892578125,0.926513671875,73.0,-11.0,14.0,-376.0,-569.0,703.0,
307,5.190126419067383,0.017271995544433594,57.89718955331014,59.15077499310027,100584.0,-351.0,-565.0,720.0,19.0,42.6875,-30.75,1.25,5.4375,0.375,1.9375,-22.5,38.9375,-0.31005859375,0.21185302734375,-0.0157470703125,0.92669677734375,24.0,4.0,16.0,-375.0,-570.0,704.0,
308,5.206493377685547,0.016366958618164062,61.098706444470345,59.1568984453248,100584.0,-360.0,-558.0,703.0,19.0,42.6875,-30.75,1.4375,5.0,0.0,1.9375,-22.5,38.9375,-0.3099365234375,0.21221923828125,-0.015869140625,0.9266357421875,10.0,7.0,8.0,-376.0,-569.0,703.0,
309,5.221884727478027,0.015391349792480469,64.97155957618192,59.17403698592085,100584.0,-362.0,-559.0,693.0,18.6875,42.6875,-31.5625,2.5,2.875,-1.125,2.0,-22.5625,38.9375,-0.30963134765625,0.2127685546875,-0.0162353515625,0.92657470703125,14.0,10.0,-9.0,-376.0,-569.0,703.0,
310,5.237923622131348,0.016038894653320312,62.348436199310264,59.18375722207626,100584.0,-371.0,-559.0,716.0,18.6875,42.6875,-31.5625,4.5625,-0.125,-1.875,2.0625,-22.5625,38.875,-0.30902099609375,0.2127685546875,-0.0167236328125,0.92681884765625,5.0,9.0,12.0,-376.0,-568.0,704.0,
311,5.253844976425171,0.015921354293823242,62.808727294508756,59.1947424020895,100584.0,-371.0,-555.0,718.0,18.6875,42.6875,-31.5625,5.0625,-0.625,-2.375,2.0625,-22.5625,38.8125,-0.30865478515625,0.212646484375,-0.0169677734375,0.92694091796875,4.0,12.0,13.0,-376.0,-568.0,705.0,
312,5.271133661270142,0.017288684844970703,57.84129961110958,59.190303272412166,100584.0,-369.0,-560.0,714.0,18.6875,43.0625,-30.375,5.75,0.0625,-3.5,2.125,-22.5,38.75,-0.30780029296875,0.2122802734375,-0.01751708984375,0.92730712890625,2.0,8.0,-21.0,-375.0,-567.0,706.0,
313,5.287872552871704,0.0167388916015625,59.741112123974474,59.19204687148104,100585.25,-347.0,-526.0,694.0,18.6875,43.0625,-30.375,6.8125,0.3125,-2.875,2.25,-22.4375,38.625,-0.306884765625,0.212158203125,-0.01837158203125,0.9276123046875,27.0,39.0,-13.0,-374.0,-565.0,707.0,
314,5.3053297996521,0.017457246780395508,57.28280138211715,59.18576447793891,100585.25,-352.0,-526.0,772.0,18.6875,43.0625,-30.375,5.6875,1.875,-3.125,2.3125,-22.4375,38.5625,-0.30645751953125,0.21221923828125,-0.01873779296875,0.927734375,22.0,38.0,64.0,-374.0,-565.0,708.0,
315,5.323318004608154,0.017988204956054688,55.591983882939246,59.17362061167844,100585.25,-345.0,-525.0,792.0,19.0,43.0625,-30.75,2.0,4.375,-2.9375,2.3125,-22.4375,38.5625,-0.30670166015625,0.2127685546875,-0.01898193359375,0.927490234375,39.0,41.0,94.0,-375.0,-565.0,707.0,
316,5.340317487716675,0.016999483108520508,58.82531801798011,59.17251188283004,100585.25,-323.0,-547.0,753.0,19.0,43.0625,-30.75,-11.4375,11.375,0.875,2.3125,-22.625,38.875,-0.30816650390625,0.21441650390625,-0.0191650390625,0.9266357421875,54.0,20.0,49.0,-378.0,-568.0,704.0,
317,5.358333587646484,0.01801609992980957,55.505908820221,59.160183817378645,100585.25,-326.0,-542.0,734.0,19.0,43.0625,-30.75,-14.625,14.3125,1.875,2.3125,-22.75,39.0625,-0.30926513671875,0.21563720703125,-0.0191650390625,0.926025390625,53.0,26.0,32.0,-382.0,-571.0,699.0,
318,5.373007535934448,0.014673948287963867,68.14798446715518,59.184729943747406,100585.25,-328.0,-531.0,723.0,19.375,42.375,-31.5625,-17.25,16.5625,2.8125,2.25,-22.9375,39.25,-0.31072998046875,0.21673583984375,-0.0181884765625,0.92529296875,53.0,39.0,24.0,-384.0,-573.0,695.0,
319,5.387925148010254,0.014917612075805664,67.0348575173009,59.20646468479723,100585.25,-323.0,-543.0,752.0,19.375,42.375,-31.5625,-28.875,25.8125,5.375,2.1875,-23.5,40.125,-0.31622314453125,0.2225341796875,-0.01763916015625,0.92205810546875,70.0,23.0,54.0,-391.0,-579.0,687.0,
320,5.405539274215698,0.017614126205444336,56.772614680761784,59.198533905098586,100585.25,-327.0,-569.0,722.0,19.375,42.375,-31.5625,-32.0,26.9375,7.4375,2.125,-23.625,40.375,-0.31805419921875,0.22393798828125,-0.01739501953125,0.92108154296875,65.0,12.0,38.0,-393.0,-582.0,683.0,
321,5.423172473907471,0.01763319969177246,56.711204856744956,59.19044646734517,100585.25,-340.0,-581.0,655.0,19.75,43.0625,-28.6875,-32.75,26.875,9.5,2.0625,-23.875,40.75,-0.32037353515625,0.226318359375,-0.0167236328125,0.919677734375,57.0,3.0,-23.0,-397.0,-585.0,678.0,
322,5.4407947063446045,0.01762223243713379,56.74649926264662,59.18253074767005,100585.25,-394.0,-600.0,608.0,19.75,43.0625,-28.6875,-24.0,22.25,11.875,1.75,-24.625,41.625,-0.32611083984375,0.23297119140625,-0.014404296875,0.91607666015625,-24.0,-6.0,-52.0,-409.0,-592.0,665.0,
323,5.458007097244263,0.017212390899658203,58.09768124774912,59.179109562367934,100585.25,-447.0,-596.0,626.0,19.75,43.0625,-28.6875,-19.625,18.625,11.0625,1.6875,-24.875,41.875,-0.32733154296875,0.2347412109375,-0.013671875,0.9151611328125,-35.0,-2.0,-36.0,-412.0,-593.0,662.0,
324,5.474515438079834,0.01650834083557129,60.57543940728759,59.183320179592336,100585.25,-447.0,-597.0,651.0,20.875,42.6875,-29.0625,-16.375,15.3125,9.75,1.375,-25.0,42.0,-0.328857421875,0.235595703125,-0.01123046875,0.9144287109375,-31.0,-1.0,-8.0,-415.0,-595.0,659.0,
325,5.49022102355957,0.015705585479736328,63.671615508394815,59.19615960912392,100585.25,-422.0,-616.0,666.0,20.875,42.6875,-29.0625,-10.5,8.6875,7.125,1.1875,-25.375,42.375,-0.3311767578125,0.2386474609375,-0.00958251953125,0.912841796875,-1.0,-18.0,12.0,-421.0,-597.0,653.0,
326,5.507404804229736,0.017183780670166016,58.19441129949774,59.1930340311337,100585.25,-427.0,-612.0,669.0,20.875,42.6875,-29.0625,-9.5,9.0,6.375,1.125,-25.5,42.5,-0.331787109375,0.23956298828125,-0.0091552734375,0.91241455078125,-5.0,-14.0,17.0,-422.0,-597.0,652.0,
327,5.5231101512908936,0.015705347061157227,63.672582089778814,59.20577193695325,100585.25,-428.0,-609.0,676.0,20.5,43.5,-27.375,-8.5,9.125,5.625,1.0625,-25.625,42.5625,-0.33233642578125,0.2403564453125,-0.00860595703125,0.9119873046875,-4.0,-11.0,25.0,-424.0,-598.0,650.0,
328,5.540302753448486,0.017192602157592773,58.16455187142045,59.2025408351269,100585.25,-406.0,-630.0,673.0,20.5,43.5,-27.375,-5.4375,10.4375,7.8125,0.9375,-25.9375,42.8125,-0.33349609375,0.24298095703125,-0.0076904296875,0.910888671875,20.0,-42.0,28.0,-429.0,-599.0,646.0,
329,5.555907964706421,0.01560521125793457,64.08115747177364,59.21624369769139,100585.25,-415.0,-629.0,669.0,20.5,43.5,-27.375,-3.75,9.625,9.0625,0.875,-26.0,42.8125,-0.33367919921875,0.24383544921875,-0.0072021484375,0.91058349609375,15.0,-29.0,23.0,-430.0,-599.0,645.0,
330,5.572450160980225,0.01654219627380371,60.4514650562818,59.21991053607758,100585.25,-418.0,-619.0,668.0,21.6875,43.0625,-27.875,-2.4375,8.5,9.8125,0.75,-26.125,42.875,-0.33380126953125,0.24444580078125,-0.0062255859375,0.91033935546875,13.0,-20.0,23.0,-432.0,-599.0,644.0,
331,5.589783191680908,0.017333030700683594,57.69331499312242,59.2151768055363,100585.25,-433.0,-599.0,650.0,21.6875,43.0625,-27.875,-0.6875,6.5,9.0,0.5625,-26.4375,42.8125,-0.3333740234375,0.2467041015625,-0.00457763671875,0.909912109375,-15.0,30.0,29.0,-437.0,-597.0,643.0,
332,5.608525037765503,0.018741846084594727,53.356536783319974,59.19559915743416,100585.25,-451.0,-565.0,670.0,21.6875,43.0625,-27.875,-1.4375,6.3125,7.375,0.5,-26.5625,42.875,-0.3333740234375,0.24737548828125,-0.004150390625,0.90972900390625,-12.0,30.0,27.0,-438.0,-596.0,642.0,
333,5.624654531478882,0.016129493713378906,61.99822621651984,59.20363608757404,100585.25,-443.0,-570.0,680.0,22.375,43.0625,-26.1875,-3.25,6.125,5.625,0.25,-26.625,42.875,-0.333984375,0.24737548828125,-0.0020751953125,0.9095458984375,-3.0,26.0,39.0,-439.0,-596.0,641.0,
334,5.639506101608276,0.014851570129394531,67.3329480511141,59.22504453089425,100585.25,-427.0,-573.0,653.0,22.375,43.0625,-26.1875,-8.3125,3.9375,3.875,0.125,-26.8125,43.0625,-0.3353271484375,0.2489013671875,-0.0010986328125,0.90863037109375,15.0,24.0,-9.0,-442.0,-598.0,638.0,
335,5.655923366546631,0.016417264938354492,60.91148578980235,59.22993970912708,100587.0,-436.0,-571.0,617.0,22.375,43.0625,-26.1875,-7.8125,2.4375,3.6875,0.0625,-26.875,43.1875,-0.3358154296875,0.2491455078125,-0.00067138671875,0.90838623046875,6.0,27.0,-19.0,-443.0,-598.0,637.0,
336,5.672744035720825,0.016820669174194336,59.45066689345296,59.23059420348147,100587.0,-447.0,-563.0,632.0,22.375,44.1875,-26.1875,-7.25,0.8125,3.375,0.0,-26.875,43.25,-0.3363037109375,0.24932861328125,-0.00030517578125,0.90814208984375,-3.0,36.0,-4.0,-443.0,-599.0,636.0,
337,5.690338134765625,0.017594099044799805,56.83723829527746,59.22319412638568,100587.0,-437.0,-579.0,643.0,22.375,44.1875,-26.1875,-5.25,-0.75,3.0,359.875,-26.9375,43.375,-0.33740234375,0.24945068359375,0.000732421875,0.90771484375,9.0,24.0,23.0,-444.0,-600.0,635.0,
338,5.7051613330841064,0.014823198318481445,67.46182426455213,59.24459980473214,100587.0,-419.0,-568.0,648.0,22.375,44.1875,-26.1875,-5.5,0.625,3.1875,359.8125,-26.9375,43.375,-0.337646484375,0.24951171875,0.0010986328125,0.9075927734375,25.0,31.0,13.0,-444.0,-600.0,634.0,
339,5.7210705280303955,0.015909194946289062,62.8567318067378,59.25464444793485,100587.0,-427.0,-561.0,662.0,22.6875,43.5,-25.6875,-6.25,2.0625,3.625,359.8125,-27.0,43.375,-0.33782958984375,0.2496337890625,0.00146484375,0.907470703125,18.0,39.0,27.0,-445.0,-600.0,634.0,
340,5.737259864807129,0.0161893367767334,61.76905291371515,59.261739578085134,100587.0,-436.0,-560.0,630.0,22.6875,43.5,-25.6875,-6.875,4.75,4.25,359.625,-27.125,43.5,-0.33856201171875,0.25079345703125,0.0025634765625,0.90692138671875,2.0,35.0,-17.0,-447.0,-600.0,632.0,
341,5.754546403884888,0.01728653907775879,57.84847941521274,59.25749417361398,100587.0,-445.0,-583.0,582.0,22.6875,43.5,-25.6875,-5.1875,5.0625,4.5,359.625,-27.1875,43.5625,-0.3388671875,0.25128173828125,0.00286865234375,0.9066162109375,3.0,17.0,-49.0,-448.0,-601.0,631.0,
342,5.773354530334473,0.01880812644958496,53.1685068515725,59.2376577954908,100587.0,-456.0,-587.0,606.0,22.6875,42.6875,-26.5625,-2.25,3.5625,4.5625,359.5,-27.25,43.5625,-0.33905029296875,0.2515869140625,0.00360107421875,0.906494140625,-6.0,13.0,-24.0,-449.0,-601.0,631.0,
343,5.789295673370361,0.015941143035888672,62.730758876491876,59.24727624082728,100587.0,-458.0,-582.0,641.0,22.6875,42.6875,-26.5625,1.4375,1.25,3.6875,359.4375,-27.375,43.5,-0.3385009765625,0.25213623046875,0.0042724609375,0.90655517578125,-5.0,21.0,16.0,-451.0,-599.0,631.0,
344,5.805654764175415,0.01635909080505371,61.128091525176714,59.25257597518525,100587.0,-462.0,-575.0,669.0,22.6875,42.6875,-26.5625,2.0625,0.375,2.5,359.4375,-27.375,43.5,-0.33831787109375,0.25225830078125,0.00439453125,0.9066162109375,-11.0,24.0,37.0,-451.0,-599.0,631.0,
345,5.823774814605713,0.01812005043029785,55.18748437520559,59.23992787886623,100587.0,-454.0,-560.0,682.0,23.75,43.875,-26.1875,1.3125,1.8125,1.6875,359.375,-27.375,43.4375,-0.33819580078125,0.25244140625,0.00445556640625,0.9066162109375,-11.0,38.0,51.0,-451.0,-599.0,631.0,
346,5.838550090789795,0.014775276184082031,67.68062996191829,59.26128826843647,100587.0,-441.0,-591.0,651.0,23.75,43.875,-26.1875,-1.4375,4.625,0.8125,359.4375,-27.5,43.5625,-0.33837890625,0.25347900390625,0.00439453125,0.90618896484375,20.0,-5.0,-7.0,-453.0,-599.0,630.0,
347,5.854838132858276,0.016288042068481445,61.394733375294585,59.267223469865236,100587.0,-439.0,-597.0,590.0,23.75,43.875,-26.1875,-0.25,4.9375,2.125,359.4375,-27.5625,43.5625,-0.33831787109375,0.25390625,0.00439453125,0.9061279296875,14.0,1.0,-39.0,-454.0,-599.0,629.0,
348,5.872772693634033,0.017934560775756836,55.75826542413889,59.2565076419908,100587.0,-466.0,-579.0,561.0,23.0625,43.0625,-25.375,4.3125,3.6875,2.5,359.4375,-27.625,43.5,-0.33795166015625,0.2542724609375,0.00439453125,0.9061279296875,-11.0,19.0,-68.0,-454.0,-598.0,629.0,
349,5.890868186950684,0.01809549331665039,55.26237845529526,59.24423852719991,100587.0,-463.0,-572.0,690.0,23.0625,43.0625,-25.375,10.375,-1.5,1.6875,359.4375,-27.625,43.1875,-0.335693359375,0.25421142578125,0.0042724609375,0.906982421875,8.0,31.0,91.0,-455.0,-595.0,632.0,
350,5.907218933105469,0.016350746154785156,61.15928842228055,59.249539244011466,100587.0,-422.0,-581.0,708.0,23.0625,43.0625,-25.375,6.375,1.375,0.3125,359.4375,-27.625,43.125,-0.335205078125,0.2542724609375,0.00408935546875,0.90716552734375,32.0,13.0,74.0,-455.0,-594.0,633.0,
351,5.921706199645996,0.014487266540527344,69.02613389506945,59.273457372975216,100587.0,-409.0,-595.0,670.0,23.5,43.5,-26.1875,4.6875,4.0625,0.9375,359.5,-27.6875,43.125,-0.3348388671875,0.254638671875,0.00396728515625,0.9072265625,45.0,-1.0,36.0,-455.0,-593.0,633.0,
352,5.940780401229858,0.019074201583862305,52.42683399372523,59.25147476030743,100587.0,-405.0,-607.0,631.0,23.5,43.5,-26.1875,5.5,7.375,4.3125,359.5,-27.8125,43.0625,-0.333251953125,0.25665283203125,0.00396728515625,0.9072265625,39.0,-5.0,0.0,-459.0,-590.0,633.0,
353,5.956457138061523,0.01567673683166504,63.788785302571746,59.26341646015449,100587.0,-421.0,-645.0,530.0,23.5,43.5,-26.1875,12.0,7.75,8.0,359.4375,-28.0,42.875,-0.3321533203125,0.25750732421875,0.00408935546875,0.90740966796875,39.0,-56.0,-103.0,-460.0,-589.0,634.0,
354,5.972558498382568,0.016101360321044922,62.10655373589599,59.271081245310015,100587.0,-437.0,-571.0,672.0,23.5,43.5,-25.6875,16.875,4.625,10.0625,359.4375,-28.125,42.6875,-0.33062744140625,0.25811767578125,0.00439453125,0.90777587890625,24.0,15.0,36.0,-462.0,-586.0,635.0,
355,5.990054368972778,0.01749587059020996,57.1563441123966,59.26490447880162,100587.0,-427.0,-538.0,712.0,23.5,43.5,-25.6875,13.125,7.6875,10.5625,359.3125,-28.3125,42.375,-0.3265380859375,0.26055908203125,0.00537109375,0.9085693359375,22.0,-33.0,-89.0,-467.0,-579.0,638.0,
356,6.00627326965332,0.016218900680541992,61.6564599350258,59.27136246009469,100587.0,-457.0,-587.0,603.0,23.5,43.5,-25.6875,18.1875,3.0,12.0625,359.25,-28.5625,41.9375,-0.32489013671875,0.2611083984375,0.00579833984375,0.90899658203125,12.0,-11.0,-36.0,-469.0,-576.0,639.0,
357,6.023348093032837,0.0170748233795166,58.56575952636944,59.269362236085826,100587.0,-454.0,-544.0,708.0,24.5625,43.5,-26.5625,19.3125,2.4375,11.4375,359.125,-28.75,41.5,-0.3212890625,0.26165771484375,0.0062255859375,0.909912109375,11.0,12.0,19.0,-470.0,-573.0,641.0,
358,6.040984153747559,0.01763606071472168,56.70200483973449,59.26186708798312,100585.75,-462.0,-514.0,792.0,24.5625,43.5,-26.5625,14.375,3.125,11.3125,359.0625,-28.8125,41.3125,-0.3192138671875,0.26348876953125,0.007568359375,0.9102783203125,8.0,68.0,160.0,-475.0,-565.0,644.0,
359,6.055480241775513,0.014496088027954102,68.98412855051726,59.28514100720416,100585.75,-469.0,-517.0,767.0,24.5625,43.5,-26.5625,0.0,8.9375,9.25,358.9375,-29.0625,41.25,-0.3189697265625,0.264404296875,0.008056640625,0.91009521484375,7.0,48.0,123.0,-476.0,-565.0,643.0,
360,6.072394609451294,0.01691436767578125,59.1213351375733,59.284684733709994,100585.75,-500.0,-614.0,541.0,24.5625,43.0625,-27.375,-2.375,9.0625,8.125,358.875,-29.1875,41.25,-0.3189697265625,0.26531982421875,0.00848388671875,0.90985107421875,-11.0,-29.0,-100.0,-478.0,-564.0,643.0,
361,6.090255975723267,0.017861366271972656,55.98675850285653,59.275012649550966,100585.75,-504.0,-561.0,629.0,24.5625,43.0625,-27.375,3.75,2.125,7.375,358.8125,-29.375,41.1875,-0.317626953125,0.26654052734375,0.00970458984375,0.909912109375,3.0,-1.0,-21.0,-481.0,-561.0,643.0,
362,6.106865167617798,0.01660919189453125,60.2076251722554,59.27754912938599,100585.75,-485.0,-569.0,667.0,24.5625,43.0625,-27.375,9.1875,-2.6875,7.375,358.6875,-29.4375,40.9375,-0.3167724609375,0.26654052734375,0.0101318359375,0.91021728515625,-3.0,-9.0,23.0,-482.0,-560.0,644.0,
363,6.124125242233276,0.017260074615478516,57.93717711412548,59.2737714599098,100585.75,-476.0,-515.0,778.0,25.25,42.375,-27.0,5.4375,-4.0625,7.75,358.5625,-29.4375,40.75,-0.3153076171875,0.26629638671875,0.01129150390625,0.9107666015625,5.0,41.0,132.0,-482.0,-557.0,646.0,
364,6.138854265213013,0.014729022979736328,67.8931658519214,59.29445207107707,100585.75,-471.0,-510.0,770.0,25.25,42.375,-27.0,0.3125,-3.3125,7.6875,358.4375,-29.5,40.6875,-0.31512451171875,0.2662353515625,0.011962890625,0.910888671875,-17.0,52.0,35.0,-483.0,-556.0,646.0,
365,6.157366514205933,0.018512248992919922,54.01828812817144,59.27858917572835,100585.75,-502.0,-505.0,636.0,25.25,42.375,-27.0,-6.1875,-3.625,5.6875,358.3125,-29.5,40.6875,-0.31561279296875,0.26605224609375,0.01336669921875,0.91070556640625,-18.0,51.0,-9.0,-483.0,-556.0,646.0,
366,6.173861742019653,0.016495227813720703,60.623594368802934,59.282182739691635,100585.75,-474.0,-501.0,641.0,25.25,42.375,-27.375,-6.3125,-4.375,3.5,358.125,-29.5,40.75,-0.31640625,0.265625,0.01446533203125,0.9105224609375,8.0,55.0,-4.0,-483.0,-557.0,646.0,
367,6.189240217208862,0.015378475189208984,65.02595268363771,59.29645434985307,100585.75,-450.0,-558.0,501.0,25.25,42.375,-27.375,-4.75,-4.25,2.8125,358.0625,-29.5,40.8125,-0.31671142578125,0.265380859375,0.014892578125,0.9105224609375,32.0,0.0,-144.0,-483.0,-557.0,645.0,
368,6.207857370376587,0.01861715316772461,53.713905181466586,59.27971247472073,100585.75,-479.0,-569.0,524.0,25.25,42.375,-27.375,7.75,-7.8125,3.75,358.0,-29.4375,40.625,-0.31585693359375,0.2645263671875,0.01556396484375,0.91107177734375,2.0,-12.0,-122.0,-482.0,-556.0,647.0,
369,6.2227942943573,0.01493692398071289,66.94818834796489,59.298119549701575,100585.75,-447.0,-524.0,704.0,25.0,42.375,-27.0625,14.3125,-9.375,5.125,357.9375,-29.375,40.25,-0.31353759765625,0.26336669921875,0.01617431640625,0.91217041015625,34.0,27.0,53.0,-481.0,-552.0,651.0,
370,6.237959623336792,0.015165328979492188,65.93988177587725,59.31426657777573,100585.75,-446.0,-512.0,745.0,25.0,42.375,-27.0625,12.625,-8.875,5.9375,357.875,-29.3125,40.0625,-0.3123779296875,0.26287841796875,0.0166015625,0.9127197265625,34.0,38.0,91.0,-480.0,-550.0,653.0,
371,6.255158185958862,0.017198562622070312,58.14439392259066,59.311050011939685,100585.75,-440.0,-513.0,773.0,25.0,42.375,-27.0625,1.875,-3.875,6.375,357.75,-29.3125,39.875,-0.31134033203125,0.26239013671875,0.01763916015625,0.91314697265625,40.0,35.0,118.0,-480.0,-548.0,655.0,
372,6.273752927780151,0.018594741821289062,53.77864396348343,59.29465254405949,100585.75,-468.0,-506.0,694.0,25.6875,40.875,-27.375,-7.5625,2.3125,5.5625,357.625,-29.4375,39.9375,-0.31195068359375,0.2628173828125,0.018798828125,0.912841796875,13.0,42.0,40.0,-482.0,-548.0,654.0,
373,6.290354013442993,0.016601085662841797,60.2370242711475,59.29713958910245,100585.75,-495.0,-531.0,622.0,25.6875,40.875,-27.375,-8.0,3.5,4.6875,357.5625,-29.4375,40.0,-0.3125,0.26318359375,0.01922607421875,0.91253662109375,-14.0,22.0,-35.0,-482.0,-549.0,653.0,
374,6.305546998977661,0.015192985534667969,65.81984809490929,59.31285581736808,100585.75,-494.0,-533.0,639.0,25.6875,40.875,-27.375,-4.3125,2.5625,2.8125,357.5,-29.5625,40.125,-0.31317138671875,0.2637939453125,0.01983642578125,0.912109375,-10.0,16.0,-12.0,-484.0,-549.0,651.0,
375,6.321256399154663,0.015709400177001953,63.65615419638792,59.3236496545447,100585.75,-487.0,-542.0,699.0,26.0625,41.1875,-28.25,-2.4375,1.625,1.4375,357.4375,-29.5625,40.1875,-0.3134765625,0.26409912109375,0.0201416015625,0.911865234375,-2.0,7.0,48.0,-484.0,-550.0,651.0,
376,6.340579986572266,0.01932358741760254,51.75022517242655,59.3005688432718,100585.75,-496.0,-544.0,679.0,26.0625,41.1875,-28.25,-3.375,2.125,0.625,357.4375,-29.625,40.1875,-0.313720703125,0.26434326171875,0.0201416015625,0.9117431640625,-4.0,6.0,38.0,-485.0,-550.0,650.0,
377,6.355572462081909,0.014992475509643555,66.70012563013852,59.31802402525126,100585.75,-500.0,-541.0,662.0,26.0625,41.1875,-28.25,-2.75,0.9375,-1.0625,357.4375,-29.625,40.3125,-0.314208984375,0.2645263671875,0.0201416015625,0.9114990234375,-15.0,9.0,12.0,-485.0,-551.0,649.0,
378,6.37309718132019,0.01752471923828125,57.06225511536787,59.31182112018212,100585.75,-477.0,-536.0,667.0,25.6875,41.1875,-27.0,-1.4375,-1.5,-3.125,357.5,-29.5625,40.3125,-0.3145751953125,0.26422119140625,0.0198974609375,0.9114990234375,7.0,15.0,17.0,-484.0,-552.0,649.0,
379,6.390126705169678,0.017029523849487305,58.72154787405323,59.31024805711366,100585.75,-450.0,-553.0,678.0,25.6875,41.1875,-27.0,-1.6875,-2.25,-3.25,357.5,-29.5625,40.3125,-0.314697265625,0.263916015625,0.01971435546875,0.91156005859375,17.0,13.0,18.0,-484.0,-552.0,649.0,
380,6.405255079269409,0.015128374099731445,66.10095661355649,59.32628682187365,100585.75,-443.0,-557.0,672.0,25.6875,41.1875,-27.0,-2.1875,-1.25,-2.625,357.5,-29.5,40.375,-0.31512451171875,0.26348876953125,0.0194091796875,0.91156005859375,39.0,-3.0,22.0,-483.0,-553.0,649.0,
381,6.422547101974487,0.017292022705078125,57.830134568718286,59.32225859159039,100584.5,-453.0,-553.0,664.0,24.5625,41.5625,-27.375,-2.5625,0.625,-1.4375,357.5625,-29.4375,40.4375,-0.31561279296875,0.263427734375,0.019287109375,0.911376953125,28.0,0.0,15.0,-482.0,-554.0,649.0,
382,6.438185214996338,0.015638113021850586,63.946334100715035,59.3334902994426,100584.5,-455.0,-546.0,650.0,24.5625,41.5625,-27.375,-2.375,0.1875,-1.3125,357.5625,-29.4375,40.5,-0.3157958984375,0.263427734375,0.01922607421875,0.91131591796875,26.0,7.0,1.0,-482.0,-554.0,648.0,
383,6.457018852233887,0.018833637237548828,53.09648834088665,59.31529840082414,100584.5,-449.0,-540.0,646.0,24.5625,41.5625,-27.375,-1.5625,-0.875,-1.25,357.5625,-29.4375,40.5,-0.31610107421875,0.26318359375,0.01910400390625,0.91131591796875,33.0,15.0,-2.0,-482.0,-555.0,648.0,
384,6.473434686660767,0.016415834426879883,60.9167937490015,59.31935959611592,100584.5,-442.0,-540.0,665.0,25.25,42.0,-27.0,-0.5625,-0.5,-0.6875,357.5625,-29.375,40.5,-0.31610107421875,0.2626953125,0.0189208984375,0.91143798828125,38.0,15.0,16.0,-481.0,-555.0,649.0,
385,6.48972225189209,0.016287565231323242,61.3965307765498,59.32457277162402,100584.5,-435.0,-534.0,672.0,25.25,42.0,-27.0,-1.6875,1.625,0.0625,357.625,-29.3125,40.5,-0.31610107421875,0.2623291015625,0.018798828125,0.91156005859375,42.0,16.0,15.0,-480.0,-555.0,649.0,
386,6.505485534667969,0.015763282775878906,63.43856252646863,59.33454127950819,100584.5,-446.0,-539.0,700.0,25.25,42.0,-27.0,-2.625,2.3125,0.4375,357.625,-29.3125,40.5,-0.31634521484375,0.26251220703125,0.018798828125,0.91143798828125,34.0,16.0,50.0,-480.0,-555.0,649.0,
387,6.521161794662476,0.015676259994506836,63.79072561634044,59.345253527792664,100584.5,-461.0,-550.0,696.0,25.25,42.375,-27.375,-5.6875,4.75,0.75,357.5625,-29.375,40.625,-0.31707763671875,0.26318359375,0.0189208984375,0.91094970703125,20.0,6.0,49.0,-481.0,-556.0,647.0,
388,6.539188623428345,0.01802682876586914,55.472873958471105,59.33457839247656,100584.5,-480.0,-569.0,654.0,25.25,42.375,-27.375,-4.9375,4.5625,0.0625,357.5625,-29.4375,40.75,-0.3175048828125,0.26348876953125,0.0189208984375,0.91070556640625,14.0,0.0,22.0,-482.0,-557.0,646.0,
389,6.555760383605957,0.016571760177612305,60.34362006704361,59.33712906481077,100584.5,-483.0,-566.0,659.0,25.25,42.375,-27.375,-3.6875,2.625,-1.1875,357.625,-29.5,40.8125,-0.31817626953125,0.26397705078125,0.01885986328125,0.91033935546875,0.0,-8.0,14.0,-483.0,-558.0,645.0,
390,6.573939800262451,0.01817941665649414,55.00726557377049,59.32515536336825,100584.5,-467.0,-574.0,658.0,25.0,41.1875,-26.1875,-1.875,1.0,-3.0625,357.625,-29.5,40.9375,-0.3187255859375,0.2640380859375,0.0184326171875,0.91015625,15.0,-14.0,13.0,-482.0,-559.0,644.0,
391,6.590615749359131,0.016675949096679688,59.9666018529109,59.32677838759158,100584.5,-467.0,-577.0,650.0,25.0,41.1875,-26.1875,0.75,-0.5,-3.875,357.75,-29.4375,40.9375,-0.31890869140625,0.2637939453125,0.017822265625,0.91015625,14.0,-17.0,5.0,-482.0,-560.0,644.0,
392,6.6052186489105225,0.014602899551391602,68.47955068654183,59.34701345044153,100584.5,-462.0,-567.0,659.0,25.0,41.1875,-26.1875,1.75,-0.8125,-3.6875,357.75,-29.375,40.9375,-0.31884765625,0.26361083984375,0.01751708984375,0.91021728515625,19.0,-7.0,14.0,-481.0,-560.0,644.0,
393,6.630605459213257,0.025386810302734375,39.390533433508644,59.27060543979806,100584.5,-467.0,-555.0,661.0,25.6875,40.875,-26.5625,5.3125,-2.5,-3.25,357.875,-29.25,40.8125,-0.31805419921875,0.26263427734375,0.01654052734375,0.91082763671875,12.0,3.0,14.0,-479.0,-559.0,646.0,
394,6.646238327026367,0.01563286781311035,63.967789656697526,59.281653863935674,100584.5,-465.0,-548.0,668.0,25.6875,40.875,-26.5625,6.0,-3.3125,-3.5625,357.9375,-29.1875,40.75,-0.317626953125,0.26220703125,0.0162353515625,0.91107177734375,13.0,11.0,20.0,-478.0,-559.0,647.0,
395,6.659833908081055,0.0135955810546875,73.55331088664423,59.31078844484489,100584.5,-453.0,-538.0,677.0,25.6875,42.375,-27.375,6.5625,-3.5625,-4.5625,358.0,-29.0625,40.625,-0.31671142578125,0.26129150390625,0.01544189453125,0.91168212890625,22.0,20.0,27.0,-476.0,-558.0,650.0,
396,6.676866769790649,0.017032861709594727,58.71004045296119,59.30925592100985,100584.5,-449.0,-549.0,667.0,25.6875,42.375,-27.375,5.875,-3.5625,-4.875,358.0625,-29.0,40.5625,-0.3162841796875,0.2607421875,0.0150146484375,0.9119873046875,26.0,8.0,16.0,-475.0,-558.0,651.0,
397,6.695460081100464,0.018593311309814453,53.78278152488908,59.29390888620595,100584.5,-451.0,-541.0,664.0,25.6875,42.375,-27.375,4.1875,-1.9375,-5.4375,358.1875,-28.875,40.5,-0.315673828125,0.25994873046875,0.01409912109375,0.9124755859375,22.0,16.0,12.0,-473.0,-557.0,652.0,
398,6.713376998901367,0.01791691780090332,55.81317116661565,59.284619359993044,100584.5,-455.0,-535.0,673.0,25.0,41.1875,-27.375,1.5625,-1.0,-6.3125,358.3125,-28.75,40.4375,-0.31536865234375,0.2591552734375,0.01312255859375,0.91278076171875,16.0,22.0,19.0,-472.0,-557.0,653.0,
399,6.7316694259643555,0.01829242706298828,54.66743131223607,59.27207275821341,100584.5,-443.0,-557.0,659.0,25.0,41.1875,-27.375,0.375,-2.0,-7.0625,358.4375,-28.625,40.4375,-0.3154296875,0.25830078125,0.0120849609375,0.91302490234375,26.0,1.0,4.0,-470.0,-558.0,654.0,
400,6.749740362167358,0.01807093620300293,55.33747608681311,59.2615387462932,100584.5,-437.0,-555.0,689.0,25.0,41.1875,-27.375,-1.9375,-2.5,-6.625,358.5625,-28.4375,40.5,-0.31573486328125,0.2572021484375,0.0111083984375,0.91326904296875,30.0,4.0,33.0,-467.0,-559.0,655.0,
401,6.766856670379639,0.017116308212280273,58.42381356994609,59.25941977687889,100584.5,-441.0,-550.0,679.0,24.5625,41.5625,-27.375,-2.8125,-2.375,-6.3125,358.625,-28.375,40.5,-0.31597900390625,0.2567138671875,0.01068115234375,0.913330078125,24.0,10.0,23.0,-466.0,-560.0,655.0,
402,6.784739971160889,0.01788330078125,55.918088737201366,59.250612655567494,100584.5,-430.0,-562.0,652.0,24.5625,41.5625,-27.375,-4.5,-2.5,-4.875,358.6875,-28.25,40.625,-0.3167724609375,0.2557373046875,0.0101318359375,0.913330078125,33.0,0.0,-3.0,-464.0,-562.0,655.0,
403,6.8036789894104,0.01893901824951172,52.801047384057604,59.23265936374278,100584.5,-428.0,-583.0,648.0,24.5625,41.5625,-27.375,-3.375,-2.6875,-3.0625,358.75,-28.125,40.6875,-0.31756591796875,0.255126953125,0.0098876953125,0.9132080078125,34.0,-19.0,-6.0,-463.0,-563.0,655.0,
404,6.820210218429565,0.01653122901916504,60.49157015734745,59.23571078620298,100584.5,-442.0,-577.0,637.0,25.0,41.5625,-27.375,-1.5,-2.75,-0.8125,358.75,-28.0625,40.75,-0.3179931640625,0.254638671875,0.0098876953125,0.9132080078125,18.0,-11.0,-8.0,-462.0,-564.0,655.0,
405,6.837490081787109,0.017279863357543945,57.87082798680961,59.23226142276838,100584.5,-469.0,-551.0,671.0,25.0,41.5625,-27.375,-1.625,-3.0,-0.3125,358.6875,-28.0625,40.75,-0.318115234375,0.25439453125,0.010009765625,0.9132080078125,-7.0,13.0,16.0,-461.0,-564.0,655.0,
406,6.853345155715942,0.015855073928833008,63.07129216102013,59.241142941907874,100584.5,-479.0,-556.0,679.0,25.0,41.5625,-27.375,-1.4375,-3.1875,-0.6875,358.6875,-28.0,40.75,-0.318359375,0.25390625,0.01019287109375,0.91326904296875,-18.0,8.0,24.0,-461.0,-565.0,655.0,
407,6.871536731719971,0.01819157600402832,54.97049842072843,59.22983691860822,100584.5,-471.0,-561.0,650.0,25.6875,43.0625,-27.375,-0.9375,-4.25,-1.5,358.6875,-27.9375,40.75,-0.3184814453125,0.253173828125,0.0101318359375,0.9134521484375,-5.0,-3.0,22.0,-459.0,-565.0,655.0,
408,6.887949228286743,0.01641249656677246,60.92918258545301,59.2338860926074,100584.5,-468.0,-560.0,659.0,25.6875,43.0625,-27.375,0.125,-4.75,-2.8125,358.6875,-27.875,40.75,-0.31854248046875,0.252685546875,0.01007080078125,0.91351318359375,-9.0,5.0,3.0,-459.0,-565.0,656.0,
409,6.904218435287476,0.016269207000732422,61.46581083853572,59.23914543456506,100584.5,-459.0,-548.0,686.0,25.6875,43.0625,-27.375,2.5625,-5.5,-3.375,358.75,-27.75,40.6875,-0.318359375,0.25177001953125,0.00970458984375,0.91387939453125,-2.0,17.0,29.0,-457.0,-565.0,657.0,
410,6.921762943267822,0.01754450798034668,56.99789364969356,59.23346456104369,100584.5,-459.0,-546.0,675.0,24.1875,41.5625,-27.875,2.5,-5.3125,-3.3125,358.75,-27.6875,40.625,-0.31817626953125,0.25128173828125,0.00958251953125,0.9140625,7.0,9.0,9.0,-455.0,-565.0,658.0,
411,6.937103033065796,0.015340089797973633,65.1886666355823,59.24663336279754,100584.5,-448.0,-556.0,668.0,24.1875,41.5625,-27.875,2.8125,-4.0625,-3.5,358.8125,-27.625,40.5625,-0.31781005859375,0.2503662109375,0.0091552734375,0.9144287109375,13.0,10.0,0.0,-454.0,-565.0,659.0,
412,6.95348048210144,0.01637744903564453,61.059570255633844,59.25090335127938,100584.5,-433.0,-550.0,695.0,24.1875,41.5625,-27.875,2.1875,-2.125,-3.0625,358.875,-27.5,40.5,-0.31744384765625,0.2496337890625,0.0086669921875,0.914794921875,12.0,6.0,3.0,-453.0,-565.0,660.0,
413,6.971577405929565,0.018096923828125,55.25801011804384,59.24053853991915,100584.5,-445.0,-564.0,655.0,23.75,41.5625,-27.375,2.1875,-0.9375,-2.6875,358.9375,-27.5,40.5,-0.31732177734375,0.24951171875,0.00848388671875,0.91485595703125,7.0,0.0,-5.0,-452.0,-565.0,661.0,
414,6.989123821258545,0.017546415328979492,56.99169780555744,59.23489275447552,100584.5,-427.0,-568.0,650.0,23.75,41.5625,-27.375,2.8125,0.25,-2.0,359.0,-27.375,40.4375,-0.3170166015625,0.2491455078125,0.00799560546875,0.91510009765625,24.0,-3.0,-11.0,-452.0,-565.0,661.0,
415,7.00693416595459,0.017810344696044922,56.14714465476158,59.22704426372507,100584.5,-434.0,-562.0,656.0,23.75,41.5625,-27.375,3.375,0.0625,-1.0,359.0,-27.375,40.4375,-0.31658935546875,0.2490234375,0.007568359375,0.915283203125,16.0,2.0,-5.0,-451.0,-564.0,662.0,
416,7.022444248199463,0.015510082244873047,64.4741906723645,59.23863334431759,100584.5,-442.0,-550.0,680.0,23.0625,42.0,-27.875,4.125,-0.3125,-0.5,359.0625,-27.375,40.375,-0.3162841796875,0.24896240234375,0.00750732421875,0.9154052734375,8.0,13.0,17.0,-451.0,-564.0,662.0,
417,7.039250373840332,0.01680612564086914,59.502113775003544,59.239262400678264,100584.5,-428.0,-537.0,687.0,23.0625,42.0,-27.875,2.0,2.75,-0.625,359.0625,-27.4375,40.3125,-0.31549072265625,0.24920654296875,0.00714111328125,0.91558837890625,22.0,12.0,2.0,-451.0,-563.0,663.0,
418,7.056088924407959,0.016838550567626953,59.387534335797014,59.23961623472203,100584.5,-429.0,-550.0,666.0,23.0625,42.0,-27.875,1.6875,3.5,-0.1875,359.0625,-27.4375,40.25,-0.31536865234375,0.24945068359375,0.00701904296875,0.91558837890625,11.0,17.0,5.0,-452.0,-562.0,663.0,
419,7.072109222412109,0.01602029800415039,62.420811381968626,59.24682252815804,100584.5,-442.0,-544.0,675.0,23.0625,42.375,-27.875,1.875,4.4375,-0.1875,359.125,-27.4375,40.25,-0.315185546875,0.249755859375,0.0068359375,0.91552734375,9.0,18.0,12.0,-452.0,-562.0,663.0,
420,7.089844226837158,0.017735004425048828,56.38566396902643,59.239665437242714,100584.5,-439.0,-545.0,679.0,23.0625,42.375,-27.875,1.625,4.0625,-0.6875,359.1875,-27.5,40.1875,-0.31451416015625,0.25048828125,0.00634765625,0.91558837890625,14.0,15.0,15.0,-453.0,-561.0,663.0,
421,7.105032205581665,0.015187978744506836,65.84154592405382,59.253777860326274,100584.5,-439.0,-546.0,679.0,23.0625,42.375,-27.875,1.875,3.5625,-0.8125,359.1875,-27.5625,40.1875,-0.3143310546875,0.25067138671875,0.00616455078125,0.91558837890625,14.0,11.0,15.0,-453.0,-561.0,663.0,
422,7.12197208404541,0.016939878463745117,59.03230074172074,59.253251068669776,100584.5,-442.0,-553.0,683.0,23.5,40.875,-27.0,2.0,3.0625,-1.0,359.25,-27.5625,40.1875,-0.3140869140625,0.25079345703125,0.00592041015625,0.9156494140625,11.0,7.0,20.0,-454.0,-561.0,663.0,
423,7.137781143188477,0.015809059143066406,63.25487120709417,59.26211402596243,100584.5,-428.0,-550.0,693.0,23.5,40.875,-27.0,3.4375,1.1875,-1.5625,359.3125,-27.5625,40.125,-0.3134765625,0.25079345703125,0.0054931640625,0.9158935546875,24.0,10.0,28.0,-453.0,-560.0,664.0,
424,7.153442859649658,0.01566171646118164,63.84996194245699,59.27215864009369,100584.5,-428.0,-549.0,704.0,23.5,40.875,-27.0,4.75,1.25,-2.875,359.375,-27.5,40.0,-0.312744140625,0.2506103515625,0.00482177734375,0.91619873046875,24.0,15.0,96.0,-453.0,-559.0,665.0,
425,7.172553539276123,0.019110679626464844,52.3267628125156,59.253653203527335,100584.0,-417.0,-540.0,776.0,25.0,42.0,-27.875,4.0,2.4375,-3.8125,359.4375,-27.5,40.0,-0.3125,0.25067138671875,0.00439453125,0.91619873046875,35.0,18.0,110.0,-453.0,-559.0,665.0,
426,7.190317392349243,0.017763853073120117,56.29409317245359,59.24634153886995,100584.0,-393.0,-560.0,771.0,25.0,42.0,-27.875,2.5625,9.9375,-4.9375,359.6875,-27.5625,40.0625,-0.3121337890625,0.25201416015625,0.00238037109375,0.916015625,71.0,-27.0,93.0,-454.0,-559.0,664.0,
427,7.205060243606567,0.014742851257324219,67.82948444271945,59.26390419551311,100584.0,-383.0,-587.0,758.0,25.0,42.0,-27.875,4.1875,12.625,-6.0625,359.8125,-27.625,40.0625,-0.31195068359375,0.2528076171875,0.00146484375,0.91583251953125,79.0,-41.0,73.0,-455.0,-559.0,664.0,
428,7.221150159835815,0.016089916229248047,62.15072755830839,59.270336515164125,100584.0,-394.0,-601.0,718.0,24.1875,41.5625,-27.0,8.25,14.9375,-5.8125,359.9375,-27.6875,40.0625,-0.31146240234375,0.25384521484375,0.00042724609375,0.91571044921875,62.0,-42.0,54.0,-456.0,-559.0,664.0,
429,7.238194704055786,0.017044544219970703,58.66979997202406,59.26892236811728,100584.0,-416.0,-633.0,714.0,24.1875,41.5625,-27.0,26.4375,12.375,-5.0625,0.375,-27.875,39.6875,-0.30914306640625,0.25579833984375,-0.001708984375,0.91595458984375,41.0,-77.0,49.0,-458.0,-556.0,664.0,
430,7.257068634033203,0.018873929977416992,52.983136061038614,59.25257451520371,100584.0,-410.0,-620.0,763.0,24.1875,41.5625,-27.0,32.625,11.0625,-4.75,0.5,-27.9375,39.4375,-0.3048095703125,0.25732421875,-0.00439453125,0.9169921875,49.0,-70.0,94.0,-460.0,-550.0,668.0,
431,7.274728298187256,0.017659664154052734,56.62621844201431,59.24619894153273,100584.0,-373.0,-627.0,797.0,23.5,41.5625,-28.25,37.75,11.25,-5.625,0.625,-28.0,39.125,-0.30218505859375,0.25787353515625,-0.00531005859375,0.917724609375,87.0,-80.0,126.0,-460.0,-546.0,671.0,
432,7.289757490158081,0.015029191970825195,66.53717657883465,59.26123064906401,100584.0,-331.0,-667.0,831.0,23.5,41.5625,-28.25,47.25,16.75,-6.625,1.3125,-28.1875,38.0625,-0.292236328125,0.26068115234375,-0.01092529296875,0.9200439453125,165.0,-195.0,123.0,-464.0,-532.0,679.0,
433,7.306385278701782,0.016627788543701172,60.14028849187004,59.26323119890778,100584.0,-279.0,-787.0,695.0,23.5,41.5625,-28.25,50.0,14.375,1.4375,1.5,-28.3125,37.625,-0.288330078125,0.26177978515625,-0.01226806640625,0.92095947265625,186.0,-260.0,12.0,-465.0,-527.0,683.0,
