Index,Time,Difference,Hz,AveHz,Pressure,Acceleration-X,Acceleration-Y,Acceleration-Z,Magnetic-X,Magnetic-Y,Magnetic-Z,Angular-Vel-X,Angular-Vel-Y,Angular-Vel-Z,Heading,Roll,Pitch,Quaternion-X,Quaternion-Y,Quaternion-Z,Quaternion-W,Linear-Acceleration-X,Linear-Acceleration-Y,Linear-Acceleration-Z,Gravity-X,Gravity-Y,Gravity-Z,
0,0.0,0.0,0,0,100538.75,237.0,-806.0,-168.0,-3.375,47.75,13.5,12.75,-52.8125,59.75,268.0,3.375,109.625,-0.529541015625,-0.62237548828125,0.41455078125,0.40045166015625,178.0,111.0,134.0,70.0,-920.0,-330.0,
1,0.013033628463745117,0.013033628463745117,76.72460533777233,76.72460533777233,100538.75,265.0,-883.0,-77.0,-0.375,47.75,13.5,9.0,-56.9375,61.9375,266.625,2.625,109.5625,-0.530517578125,-0.6212158203125,0.419677734375,0.39569091796875,220.0,39.0,250.0,45.0,-923.0,-328.0,
2,0.027068138122558594,0.014034509658813477,71.25293468104987,73.88760877990346,100538.75,285.0,-914.0,-49.0,-0.375,47.75,13.5,6.3125,-57.25,67.0,265.1875,1.8125,109.5,-0.53173828125,-0.619873046875,0.4248046875,0.39056396484375,253.0,9.0,277.0,31.0,-923.0,-327.0,
3,0.04010272026062012,0.013034582138061523,76.71899178723638,74.80789284376617,100538.75,298.0,-895.0,-38.0,-0.375,47.75,13.5,7.3125,-51.9375,69.0625,263.75,1.0,109.4375,-0.533203125,-0.61834716796875,0.429931640625,0.38543701171875,283.0,7.0,283.0,17.0,-924.0,-326.0,
4,0.055291175842285156,0.015188455581665039,65.83947884781415,72.34427445366266,100538.75,283.0,-863.0,-41.0,-0.375,47.75,13.5,8.6875,-50.6875,65.1875,261.0,-0.5,109.3125,-0.535888671875,-0.614990234375,0.439697265625,0.3758544921875,292.0,61.0,282.0,-8.0,-925.0,-324.0,
5,0.07067513465881348,0.01538395881652832,65.0027741185587,70.74623945377202,100538.75,243.0,-862.0,-56.0,3.0625,47.75,13.875,15.25,-54.125,54.0625,258.5,-1.875,109.0,-0.5369873046875,-0.61212158203125,0.449462890625,0.3673095703125,276.0,63.0,263.0,-32.0,-926.0,-319.0,
6,0.08370828628540039,0.013033151626586914,76.7274124211104,71.67749175443893,100538.75,214.0,-861.0,-78.0,3.0625,47.75,13.875,17.3125,-58.75,48.5625,257.25,-2.5,108.8125,-0.5367431640625,-0.611083984375,0.45452880859375,0.36322021484375,257.0,65.0,237.0,-43.0,-927.0,-316.0,
7,0.0973973274230957,0.013689041137695312,73.051135571966,71.87055523188924,100538.75,162.0,-860.0,-64.0,3.0625,47.75,13.875,19.375,-64.5625,44.25,255.9375,-3.125,108.625,-0.53594970703125,-0.61029052734375,0.4598388671875,0.35906982421875,216.0,67.0,248.0,-53.0,-927.0,-313.0,
8,0.1114358901977539,0.014038562774658203,71.23236303114705,71.79015652679955,100538.75,130.0,-890.0,-51.0,6.0,47.25,13.75,22.625,-69.25,40.625,253.3125,-4.25,108.125,-0.533447265625,-0.60894775390625,0.47076416015625,0.3507080078125,204.0,38.0,253.0,-73.0,-929.0,-304.0,
9,0.12647581100463867,0.015039920806884766,66.48971180368409,71.15985205795528,100538.75,69.0,-856.0,-91.0,6.0,47.25,13.75,24.4375,-71.5,40.5625,252.0,-4.875,107.875,-0.531982421875,-0.6082763671875,0.4764404296875,0.34649658203125,153.0,73.0,208.0,-83.0,-929.0,-300.0,
10,0.14151430130004883,0.015038490295410156,66.49603652736381,70.66423610994113,100538.75,55.0,-838.0,-119.0,6.0,47.25,13.75,27.25,-75.125,40.25,249.375,-6.0625,107.1875,-0.52850341796875,-0.60675048828125,0.4881591796875,0.3380126953125,159.0,92.0,169.0,-103.0,-931.0,-289.0,
11,0.1565544605255127,0.015040159225463867,66.48865780004121,70.26308904310905,100538.75,51.0,-863.0,-131.0,6.0,47.25,13.75,27.25,-78.125,40.875,248.0,-6.625,106.875,-0.526611328125,-0.60595703125,0.49420166015625,0.33355712890625,165.0,67.0,152.0,-113.0,-931.0,-283.0,
12,0.1710965633392334,0.014542102813720703,68.76584582090041,70.1358330395426,100537.75,26.0,-869.0,-134.0,9.0,46.5625,11.25,26.875,-89.3125,39.25,245.125,-7.875,106.1875,-0.52191162109375,-0.60498046875,0.50677490234375,0.32379150390625,160.0,63.0,136.0,-134.0,-932.0,-271.0,
13,0.1871798038482666,0.016083240509033203,62.176524652376294,69.45193729628106,100537.75,24.0,-859.0,-131.0,9.0,46.5625,11.25,26.5625,-97.125,37.4375,243.5625,-8.4375,105.8125,-0.51885986328125,-0.60479736328125,0.513427734375,0.318359375,169.0,73.0,133.0,-144.0,-933.0,-264.0,
14,0.2012171745300293,0.014037370681762695,71.23841228323454,69.57656588061604,100537.75,32.0,-834.0,-24.0,9.0,46.5625,11.25,27.125,-113.3125,31.625,240.3125,-9.625,105.0,-0.51123046875,-0.6053466796875,0.52752685546875,0.3065185546875,197.0,98.0,225.0,-164.0,-933.0,-250.0,
15,0.21600341796875,0.014786243438720703,67.63042987519752,69.44334557784686,100537.75,26.0,-852.0,6.0,11.375,46.875,9.25,28.375,-117.125,27.0625,238.625,-10.1875,104.5625,-0.50665283203125,-0.60589599609375,0.53466796875,0.300537109375,200.0,81.0,249.0,-174.0,-934.0,-242.0,
16,0.23104453086853027,0.015041112899780273,66.4844421196126,69.25071950352451,100537.75,-16.0,-837.0,-3.0,11.375,46.875,9.25,31.6875,-116.4375,18.625,235.5625,-11.125,103.5625,-0.49652099609375,-0.60711669921875,0.54876708984375,0.289306640625,173.0,98.0,222.0,-189.0,-935.0,-225.0,
17,0.24508404731750488,0.01403951644897461,71.22752436911999,69.36395977652762,100537.75,-33.0,-836.0,6.0,11.375,46.875,9.25,32.0,-114.5625,16.375,234.125,-11.5625,103.0,-0.4912109375,-0.60772705078125,0.55560302734375,0.28399658203125,163.0,99.0,223.0,-196.0,-935.0,-217.0,
18,0.2611229419708252,0.016038894653320312,62.348436199310264,68.9330468787806,100537.75,-33.0,-864.0,0.0,14.375,46.875,5.5,29.3125,-111.5,15.8125,231.3125,-12.3125,102.0,-0.4808349609375,-0.60888671875,0.568603515625,0.2734375,176.0,72.0,198.0,-209.0,-936.0,-199.0,
19,0.2786729335784912,0.017549991607666016,56.980084227686454,68.18028488098018,100537.75,-9.0,-826.0,16.0,14.375,46.875,5.5,25.75,-109.5625,12.25,228.6875,-13.0,101.0625,-0.4755859375,-0.60943603515625,0.57489013671875,0.26812744140625,200.0,103.0,197.0,-215.0,-937.0,-191.0,
20,0.29522085189819336,0.01654791831970215,60.430561758900396,67.74589217328382,100537.75,6.0,-831.0,20.0,14.375,46.875,5.5,24.1875,-105.3125,6.8125,227.5,-13.25,100.5625,-0.46490478515625,-0.61102294921875,0.58642578125,0.25811767578125,232.0,106.0,195.0,-225.0,-938.0,-175.0,
21,0.3112647533416748,0.016043901443481445,62.32897924003983,67.46668157749404,100537.75,-25.0,-867.0,-41.0,16.375,48.1875,2.6875,24.9375,-93.0,-12.5,226.0,-13.125,99.375,-0.4510498046875,-0.6134033203125,0.5966796875,0.25360107421875,197.0,74.0,114.0,-222.0,-942.0,-156.0,
22,0.32630300521850586,0.015038251876831055,66.49709076496235,67.42199626775701,100537.75,-48.0,-859.0,-96.0,16.375,48.1875,2.6875,26.8125,-87.1875,-22.3125,225.375,-13.0,98.9375,-0.44488525390625,-0.61474609375,0.60089111328125,0.251220703125,173.0,84.0,52.0,-221.0,-943.0,-148.0,
23,0.3483612537384033,0.02205824851989746,45.334515072579684,66.02341607505956,100537.75,-119.0,-947.0,-158.0,16.375,48.1875,2.6875,30.5,-80.75,-39.0625,223.875,-12.375,97.5,-0.43170166015625,-0.6177978515625,0.60870361328125,0.24786376953125,108.0,27.0,-8.0,-215.0,-947.0,-133.0,
24,0.3634028434753418,0.015041589736938477,66.48233447986178,66.04241114483324,100537.75,-124.0,-966.0,-173.0,16.0,47.375,1.5625,32.75,-77.375,-41.5625,223.5,-12.0625,97.0,-0.41796875,-0.6207275390625,0.61602783203125,0.24603271484375,80.0,-15.0,-56.0,-205.0,-951.0,-117.0,
25,0.37894773483276367,0.015544891357421875,64.32981595092025,65.97215843243644,100537.75,-121.0,-1003.0,-229.0,16.0,47.375,1.5625,38.5625,-69.25,-45.0,223.0,-11.375,96.0,-0.404296875,-0.62286376953125,0.623046875,0.24578857421875,72.0,-47.0,-128.0,-193.0,-956.0,-100.0,
26,0.3950052261352539,0.016057491302490234,62.2762286562732,65.8219139386711,100537.75,-100.0,-1023.0,-234.0,16.0,47.375,1.5625,40.625,-64.5625,-46.375,222.875,-11.0,95.4375,-0.3975830078125,-0.62359619140625,0.62640380859375,0.2462158203125,87.0,-65.0,-142.0,-187.0,-958.0,-92.0,
27,0.4090421199798584,0.014036893844604492,71.2408322717622,66.00787224877845,100537.75,-67.0,-1058.0,-250.0,14.0625,48.875,-0.875,41.8125,-56.375,-49.6875,222.75,-10.125,94.4375,-0.384521484375,-0.62481689453125,0.63262939453125,0.24798583984375,105.0,-96.0,-175.0,-173.0,-962.0,-75.0,
28,0.42207789421081543,0.013035774230957031,76.71197600409687,66.33846591836631,100537.75,-64.0,-1050.0,-266.0,14.0625,48.875,-0.875,40.75,-51.9375,-52.8125,222.8125,-9.6875,93.9375,-0.37811279296875,-0.62542724609375,0.63531494140625,0.2493896484375,100.0,-86.0,-199.0,-165.0,-964.0,-66.0,
29,0.43511271476745605,0.013034820556640625,76.7175885279485,66.6493968476626,100537.75,-55.0,-1054.0,-274.0,14.0625,48.875,-0.875,38.375,-48.3125,-57.0,222.9375,-9.125,93.5,-0.3717041015625,-0.626220703125,0.6376953125,0.2510986328125,101.0,-87.0,-214.0,-156.0,-966.0,-59.0,
30,0.44814491271972656,0.013032197952270508,76.73302720403944,66.94263205607835,100537.75,-50.0,-1094.0,-252.0,14.0625,48.875,-0.875,30.4375,-40.25,-64.9375,223.4375,-8.0,92.75,-0.3590087890625,-0.62841796875,0.64105224609375,0.25543212890625,85.0,-104.0,-207.0,-146.0,-968.0,-52.0,
31,0.461181640625,0.013036727905273438,76.70636430138991,67.21863419798835,100537.75,-55.0,-1102.0,-245.0,11.5,49.25,-3.75,26.875,-36.1875,-68.375,223.75,-7.3125,92.4375,-0.35284423828125,-0.6297607421875,0.64208984375,0.25799560546875,70.0,-131.0,-204.0,-125.0,-971.0,-41.0,
32,0.4757213592529297,0.014539718627929688,68.77712186803096,67.26626706493194,100537.75,-56.0,-1131.0,-237.0,11.5,49.25,-3.75,23.0,-32.25,-71.5,224.125,-6.625,92.125,-0.3468017578125,-0.63134765625,0.6427001953125,0.2608642578125,57.0,-157.0,-200.0,-114.0,-973.0,-36.0,
33,0.49478960037231445,0.019068241119384766,52.443221886018655,66.69501536646786,100537.75,-92.0,-1170.0,-237.0,11.5,49.25,-3.75,18.8125,-26.3125,-74.25,225.0625,-5.25,91.6875,-0.33502197265625,-0.63470458984375,0.64312744140625,0.26702880859375,-2.0,-194.0,-208.0,-90.0,-976.0,-29.0,
34,0.5098309516906738,0.015041351318359375,66.48338828303322,66.6887718120115,100537.75,-110.0,-1168.0,-239.0,9.0,49.75,-6.25,18.5625,-25.5625,-68.5,225.9375,-3.875,91.3125,-0.3238525390625,-0.6378173828125,0.643310546875,0.27301025390625,-43.0,-190.0,-216.0,-67.0,-978.0,-22.0,
35,0.5248692035675049,0.015038251876831055,66.49709076496235,66.68327987640934,100537.75,-107.0,-1150.0,-222.0,9.0,49.75,-6.25,19.4375,-27.625,-62.875,226.3125,-3.3125,91.125,-0.3184814453125,-0.63909912109375,0.64361572265625,0.27545166015625,-50.0,-171.0,-203.0,-56.0,-978.0,-19.0,
36,0.5389087200164795,0.01403951644897461,71.22752436911999,66.80166540801036,100535.5,-84.0,-1148.0,-212.0,9.0,49.75,-6.25,21.5625,-28.4375,-51.875,226.8125,-2.25,90.6875,-0.30853271484375,-0.6409912109375,0.64483642578125,0.27947998046875,-45.0,-169.0,-200.0,-38.0,-979.0,-11.0,
37,0.5529451370239258,0.014036417007446289,71.24325242471082,66.91441432895543,100535.5,-75.0,-1133.0,-202.0,9.0,49.75,-6.25,22.6875,-28.0,-47.875,227.0,-1.75,90.4375,-0.30389404296875,-0.64166259765625,0.6456298828125,0.2811279296875,-44.0,-152.0,-194.0,-30.0,-980.0,-8.0,
38,0.5667154788970947,0.013770341873168945,72.61983828799973,67.05304763150842,100535.5,-63.0,-1109.0,-236.0,5.5625,52.0,-7.375,25.1875,-26.1875,-43.625,227.375,-0.9375,89.9375,-0.29498291015625,-0.64251708984375,0.6466064453125,0.28436279296875,-43.0,-141.0,-210.0,-23.0,-980.0,-3.0,
39,0.5817866325378418,0.01507115364074707,66.35192128201477,67.03488498846401,100535.5,-71.0,-1094.0,-253.0,5.5625,52.0,-7.375,25.0625,-26.8125,-42.125,227.5625,-0.5,89.6875,-0.29058837890625,-0.642822265625,0.6485595703125,0.28582763671875,-62.0,-113.0,-257.0,-9.0,-980.0,4.0,
40,0.5954513549804688,0.013664722442626953,73.18114247827756,67.17593245095904,100535.5,-79.0,-1077.0,-249.0,5.5625,52.0,-7.375,24.3125,-29.5625,-39.5,227.625,-0.125,89.4375,-0.2862548828125,-0.64312744140625,0.649658203125,0.2869873046875,-77.0,-96.0,-258.0,-2.0,-980.0,8.0,
41,0.6094872951507568,0.014035940170288086,71.24567274209713,67.26965488240184,100535.5,-81.0,-1031.0,-182.0,3.875,52.0,-9.0625,20.5625,-34.125,-31.5625,227.625,0.5,89.0625,-0.27789306640625,-0.64398193359375,0.6519775390625,0.2880859375,-89.0,-50.0,-198.0,8.0,-980.0,15.0,
42,0.6235244274139404,0.014037132263183594,71.2396222569468,67.35902901862957,100535.5,-79.0,-1016.0,-154.0,3.875,52.0,-9.0625,18.0,-33.75,-27.8125,227.625,0.75,88.875,-0.2740478515625,-0.64447021484375,0.653076171875,0.2882080078125,-92.0,-35.0,-173.0,13.0,-980.0,18.0,
43,0.6375627517700195,0.014038324356079102,71.23357279937501,67.44434156578659,100535.5,-51.0,-978.0,-114.0,3.875,52.0,-9.0625,13.25,-29.5,-23.875,227.5,1.25,88.625,-0.26727294921875,-0.6455078125,0.65484619140625,0.2882080078125,-73.0,1.0,-137.0,21.0,-980.0,23.0,
44,0.6516032218933105,0.014040470123291016,71.22268636440822,67.52575573851948,100535.5,-50.0,-964.0,-99.0,3.875,52.0,-9.0625,11.3125,-25.625,-23.6875,227.4375,1.4375,88.5,-0.2642822265625,-0.64599609375,0.655517578125,0.28839111328125,-75.0,15.0,-124.0,25.0,-980.0,25.0,
45,0.6666407585144043,0.01503753662109375,66.50025367833587,67.50262330236394,100535.5,-47.0,-965.0,-96.0,2.5,52.75,-7.25,7.75,-16.1875,-25.5,227.625,1.9375,88.3125,-0.25909423828125,-0.64703369140625,0.65606689453125,0.28955078125,-73.0,7.0,-122.0,29.0,-979.0,26.0,
46,0.6811809539794922,0.01454019546508789,68.77486636277179,67.52978005516121,100535.5,-38.0,-988.0,-132.0,2.5,52.75,-7.25,6.4375,-15.1875,-26.4375,227.6875,2.25,88.25,-0.25665283203125,-0.64764404296875,0.65606689453125,0.290283203125,-77.0,-8.0,-161.0,38.0,-979.0,28.0,
47,0.6957240104675293,0.01454305648803711,68.76133643726024,67.55552387564691,100535.5,-40.0,-1003.0,-109.0,2.5,52.75,-7.25,5.1875,-16.0,-27.5625,227.8125,2.5,88.25,-0.25408935546875,-0.6483154296875,0.656005859375,0.29107666015625,-83.0,-24.0,-138.0,43.0,-979.0,29.0,
48,0.7087578773498535,0.013033866882324219,76.72320187312505,67.72411501016232,100535.5,-49.0,-1018.0,-89.0,2.5,52.75,-7.25,4.0625,-16.625,-27.6875,227.9375,2.75,88.1875,-0.2491455078125,-0.64984130859375,0.65576171875,0.29248046875,-107.0,-60.0,-69.0,52.0,-978.0,30.0,
49,0.722794771194458,0.014036893844604492,71.2408322717622,67.79241072680259,100535.5,-55.0,-1039.0,-38.0,0.5625,52.375,-9.375,3.3125,-15.5,-26.5625,228.0625,3.0,88.1875,-0.24700927734375,-0.6505126953125,0.6556396484375,0.29315185546875,-114.0,-63.0,-46.0,56.0,-978.0,31.0,
50,0.7358293533325195,0.013034582138061523,76.71899178723638,67.95053740864442,100535.5,-56.0,-1054.0,2.0,0.5625,52.375,-9.375,4.25,-11.0,-20.375,228.25,3.4375,88.125,-0.24517822265625,-0.6510009765625,0.6556396484375,0.29376220703125,-115.0,-76.0,-28.0,59.0,-978.0,31.0,
51,0.7488646507263184,0.013035297393798828,76.71478216336833,68.10309439834751,100535.5,-49.0,-1100.0,37.0,0.5625,52.375,-9.375,7.6875,-3.4375,-14.75,228.4375,3.75,88.0,-0.24249267578125,-0.65118408203125,0.65576171875,0.29522705078125,-111.0,-133.0,-3.0,65.0,-977.0,33.0,
52,0.7629010677337646,0.014036417007446289,71.24325242471082,68.16086934373885,100535.5,-45.0,-1111.0,30.0,0.5625,52.375,-9.375,7.6875,-3.4375,-14.75,228.4375,3.75,88.0,-0.24249267578125,-0.65118408203125,0.65576171875,0.29522705078125,-111.0,-133.0,-3.0,65.0,-977.0,33.0,
53,0.7769510746002197,0.014050006866455078,71.17434244018327,68.21536353144393,100535.5,-38.0,-1107.0,-2.0,-0.5,52.75,-10.5625,16.375,-0.75,-5.375,228.5625,3.875,87.875,-0.24151611328125,-0.65081787109375,0.65606689453125,0.29608154296875,-109.0,-131.0,-25.0,67.0,-977.0,35.0,
54,0.7914893627166748,0.014538288116455078,68.78388927154056,68.22580636415968,100535.5,-20.0,-1116.0,-44.0,-0.5,52.75,-10.5625,18.4375,-3.0625,-2.75,228.625,4.0625,87.4375,-0.23919677734375,-0.6485595703125,0.65838623046875,0.29779052734375,-76.0,-146.0,-94.0,69.0,-977.0,43.0,
55,0.8065292835235596,0.015039920806884766,66.48971180368409,68.19343218353633,100535.5,-4.0,-1118.0,-48.0,-0.5,52.75,-10.5625,20.8125,-6.1875,-1.0625,228.5625,4.0625,87.25,-0.23828125,-0.6475830078125,0.65960693359375,0.2979736328125,-74.0,-141.0,-95.0,70.0,-977.0,46.0,
56,0.8220715522766113,0.015542268753051758,64.34067097209652,68.12059101779631,100535.5,4.0,-1116.0,-48.0,-1.25,52.375,-9.75,22.6875,-8.5,0.25,228.5,4.0625,87.0,-0.23724365234375,-0.646484375,0.66107177734375,0.29791259765625,-65.0,-139.0,-98.0,70.0,-976.0,50.0,
57,0.836108922958374,0.014037370681762695,71.23841228323454,68.17293588772975,100535.5,-2.0,-1105.0,-58.0,-1.25,52.375,-9.75,26.0625,-7.8125,5.0,228.25,4.0,86.5,-0.2354736328125,-0.6439208984375,0.66436767578125,0.297607421875,-69.0,-128.0,-157.0,69.0,-976.0,58.0,
58,0.8526520729064941,0.016543149948120117,60.44798016919596,68.02305634734621,100535.5,-14.0,-1075.0,-120.0,-1.25,52.375,-9.75,23.25,-6.6875,11.125,227.875,3.8125,86.0625,-0.2344970703125,-0.64111328125,0.66778564453125,0.2967529296875,-62.0,-57.0,-215.0,66.0,-976.0,66.0,
59,0.8666901588439941,0.0140380859375,71.23478260869565,68.07507780946214,100535.5,8.0,-1023.0,-174.0,-2.6875,52.0,-11.0,19.3125,-7.25,16.0625,227.6875,3.6875,85.875,-0.23443603515625,-0.639892578125,0.66937255859375,0.29583740234375,-55.0,-47.0,-244.0,63.0,-976.0,69.0,
60,0.8817293643951416,0.015039205551147461,66.49287401512389,68.04809097081558,100535.5,29.0,-1003.0,-179.0,-2.6875,52.0,-11.0,7.0,-4.6875,22.0625,227.125,3.3125,85.6875,-0.235595703125,-0.63812255859375,0.6717529296875,0.29327392578125,-13.0,-4.0,-268.0,56.0,-976.0,73.0,
61,0.8972711563110352,0.015541791915893555,64.34264500590609,67.98390828786947,100535.5,66.0,-892.0,-214.0,-2.6875,52.0,-11.0,-21.125,10.625,20.3125,226.875,3.0625,85.75,-0.2369384765625,-0.637939453125,0.6719970703125,0.2919921875,13.0,83.0,-286.0,53.0,-976.0,72.0,
62,0.9126036167144775,0.015332460403442383,65.22110435553344,67.93749100316975,100535.5,90.0,-871.0,-221.0,-2.6875,52.0,-11.0,-21.125,10.625,20.3125,226.875,2.875,85.9375,-0.23919677734375,-0.63848876953125,0.671142578125,0.291015625,40.0,105.0,-290.0,49.0,-976.0,68.0,
63,0.9281423091888428,0.015538692474365234,64.35547917881364,67.87752198804442,100538.25,118.0,-877.0,-191.0,-0.75,52.75,-12.25,-70.3125,34.25,1.0625,227.4375,2.5625,87.5,-0.2493896484375,-0.645263671875,0.66107177734375,0.29046630859375,94.0,37.0,-172.0,44.0,-978.0,41.0,
64,0.9411797523498535,0.013037443161010742,76.70215606312748,67.99976289354984,100538.25,138.0,-941.0,-130.0,-0.75,52.75,-12.25,-81.625,41.3125,-8.3125,227.9375,2.625,88.3125,-0.25323486328125,-0.64898681640625,0.655517578125,0.29144287109375,79.0,11.0,-138.0,45.0,-979.0,28.0,
65,0.9572203159332275,0.016040563583374023,62.34194919662896,67.90495241069893,100538.25,109.0,-982.0,-82.0,-0.75,52.75,-12.25,-89.6875,48.75,-16.8125,228.5625,2.75,89.125,-0.25726318359375,-0.653076171875,0.64910888671875,0.29315185546875,61.0,-3.0,-96.0,47.0,-979.0,14.0,
66,0.972261905670166,0.015041589736938477,66.48233447986178,67.8829434899099,100538.25,72.0,-1010.0,-64.0,0.0,51.25,-9.375,-95.375,55.75,-21.75,229.375,3.0,90.0,-0.261474609375,-0.65740966796875,0.64208984375,0.29534912109375,21.0,-31.0,-63.0,51.0,-979.0,0.0,
67,0.9857978820800781,0.01353597640991211,73.87719730862719,67.96525050208768,100538.25,59.0,-1038.0,-58.0,0.0,51.25,-9.375,-97.375,64.3125,-18.9375,231.125,3.375,91.875,-0.27081298828125,-0.6656494140625,0.6273193359375,0.3001708984375,0.0,-60.0,-31.0,58.0,-978.0,-32.0,
68,1.0008363723754883,0.015038490295410156,66.49603652736381,67.94317420599113,100538.25,63.0,-1051.0,-61.0,0.0,51.25,-9.375,-86.25,65.25,-7.625,232.75,3.6875,93.5,-0.281005859375,-0.67218017578125,0.61358642578125,0.30450439453125,6.0,-77.0,-20.0,63.0,-976.0,-60.0,
69,1.015878677368164,0.015042304992675781,66.47917327077919,67.92149647117138,100538.25,81.0,-1035.0,-90.0,-1.1875,53.5,-6.875,-76.4375,64.875,-1.625,233.5,3.75,94.1875,-0.2862548828125,-0.67449951171875,0.60760498046875,0.30645751953125,17.0,-59.0,-18.0,64.0,-975.0,-72.0,
70,1.0314197540283203,0.01554107666015625,64.34560628375061,67.8676161927358,100538.25,93.0,-1008.0,-125.0,-1.1875,53.5,-6.875,-54.5,53.875,7.25,234.6875,3.6875,95.3125,-0.29583740234375,-0.6773681640625,0.59820556640625,0.30950927734375,62.0,8.0,-48.0,64.0,-974.0,-90.0,
71,1.045957088470459,0.014537334442138672,68.7884016138026,67.88041381680952,100538.25,131.0,-957.0,-138.0,-1.1875,53.5,-6.875,-43.3125,44.6875,9.875,235.125,3.6875,95.6875,-0.2998046875,-0.6781005859375,0.5948486328125,0.31048583984375,68.0,16.0,-40.0,63.0,-973.0,-97.0,
72,1.0604922771453857,0.014535188674926758,68.7985565488395,67.89299795167611,100538.25,142.0,-944.0,-137.0,-1.1875,53.5,-6.875,-32.6875,36.5625,11.0,235.375,3.5625,96.0,-0.30316162109375,-0.67852783203125,0.59234619140625,0.31121826171875,80.0,28.0,-34.0,61.0,-973.0,-102.0,
73,1.0775370597839355,0.017044782638549805,58.66897931208124,67.74708984453652,100538.25,146.0,-909.0,-159.0,-1.1875,53.5,-2.75,-4.8125,21.5,10.375,235.9375,3.375,96.3125,-0.309814453125,-0.67767333984375,0.58892822265625,0.31298828125,84.0,64.0,-67.0,58.0,-972.0,-108.0,
74,1.1026062965393066,0.025069236755371094,39.88952714269411,67.11371069824285,100538.25,142.0,-908.0,-188.0,-1.1875,53.5,-2.75,3.4375,15.5,9.8125,236.125,3.1875,96.25,-0.31256103515625,-0.67608642578125,0.58880615234375,0.31402587890625,73.0,75.0,-87.0,55.0,-973.0,-107.0,
75,1.1186473369598389,0.016041040420532227,62.34009601521975,67.04525861012496,100538.25,121.0,-880.0,-192.0,-0.75,53.0625,-1.5,4.25,13.0625,10.1875,236.125,3.125,96.1875,-0.31365966796875,-0.67523193359375,0.58892822265625,0.3143310546875,67.0,93.0,-85.0,53.0,-973.0,-106.0,
76,1.1372158527374268,0.01856851577758789,53.85460054954932,66.82988090348732,100538.25,136.0,-874.0,-194.0,-0.75,53.0625,-1.5,-1.0,10.5,10.9375,236.1875,2.9375,96.1875,-0.31597900390625,-0.67376708984375,0.5892333984375,0.31463623046875,86.0,99.0,-89.0,50.0,-973.0,-105.0,
77,1.1532905101776123,0.016074657440185547,62.209723829017236,66.76548477637402,100538.25,147.0,-879.0,-180.0,-0.75,53.0625,-1.5,-3.3125,10.5,7.3125,236.25,2.75,96.1875,-0.31817626953125,-0.6729736328125,0.5888671875,0.3148193359375,99.0,93.0,-73.0,48.0,-973.0,-106.0,
78,1.1723511219024658,0.019060611724853516,52.464213344007206,66.5329682744051,100538.25,142.0,-880.0,-169.0,-0.75,53.0625,-2.375,-5.8125,10.6875,3.0,236.3125,2.75,96.25,-0.31903076171875,-0.67291259765625,0.58831787109375,0.31512451171875,94.0,92.0,-62.0,47.0,-973.0,-106.0,
79,1.1883842945098877,0.016033172607421875,62.37068760409232,66.47681256388626,100538.25,118.0,-924.0,-148.0,-0.75,53.0625,-2.375,-13.0625,11.8125,-3.75,237.0,3.0625,96.75,-0.3206787109375,-0.67535400390625,0.58349609375,0.31719970703125,55.0,5.0,-21.0,53.0,-972.0,-115.0,
80,1.2124483585357666,0.024064064025878906,41.55574049855348,65.98219168411703,100538.25,90.0,-985.0,-128.0,-0.75,53.0625,-2.375,-22.3125,15.375,-5.5,237.25,3.125,96.9375,-0.32171630859375,-0.67620849609375,0.5816650390625,0.3177490234375,36.0,-13.0,-9.0,54.0,-971.0,-119.0,
81,1.2315049171447754,0.01905655860900879,52.47537189255464,65.77318439604547,100538.25,64.0,-990.0,-127.0,0.25,52.75,-2.375,-26.9375,16.5,-1.125,237.875,3.25,97.6875,-0.32611083984375,-0.67889404296875,0.57568359375,0.318359375,5.0,-22.0,0.0,55.0,-970.0,-131.0,
82,1.2490544319152832,0.017549514770507812,56.981632431257474,65.64966097935564,100538.25,63.0,-999.0,-126.0,0.25,52.75,-2.375,-28.9375,11.6875,8.0,237.9375,3.0625,98.25,-0.3297119140625,-0.68060302734375,0.5723876953125,0.31695556640625,11.0,-5.0,34.0,52.0,-969.0,-141.0,
83,1.2711126804351807,0.02205824851989746,45.334515072579684,65.29712218084707,100538.25,68.0,-959.0,-99.0,0.0,53.0625,-0.5625,-25.6875,4.9375,14.25,237.875,2.9375,98.5,-0.33148193359375,-0.68133544921875,0.57110595703125,0.31585693359375,17.0,8.0,46.0,50.0,-968.0,-145.0,
84,1.2881591320037842,0.017046451568603516,58.663235335254136,65.20933471110403,100538.25,67.0,-924.0,-122.0,0.0,53.0625,-0.5625,-20.0625,-0.5625,16.75,237.375,2.4375,99.0625,-0.33587646484375,-0.682861328125,0.56903076171875,0.3116455078125,22.0,46.0,30.0,42.0,-967.0,-155.0,
85,1.3052029609680176,0.0170438289642334,58.6722620896107,65.12397116917269,100535.75,51.0,-911.0,-134.0,0.0,53.0625,-0.5625,-14.4375,-6.8125,18.75,237.125,2.25,99.25,-0.3370361328125,-0.68316650390625,0.56884765625,0.3099365234375,12.0,55.0,22.0,39.0,-967.0,-157.0,
86,1.3212471008300781,0.016044139862060547,62.32805302107172,65.09001983502571,100535.75,56.0,-905.0,-135.0,0.0,53.875,0.1875,-10.3125,-10.0,19.5625,236.8125,2.0625,99.3125,-0.33795166015625,-0.68341064453125,0.569091796875,0.30810546875,20.0,61.0,23.0,35.0,-966.0,-159.0,
87,1.3347914218902588,0.013544321060180664,73.83168159974652,65.1787227376659,100535.75,55.0,-882.0,-134.0,0.0,53.875,0.1875,-6.75,-12.5,20.5625,236.5,1.8125,99.375,-0.33929443359375,-0.683349609375,0.5704345703125,0.30413818359375,26.0,84.0,26.0,28.0,-966.0,-161.0,
88,1.351339340209961,0.01654791831970215,60.430561758900396,65.12057880763481,100535.75,43.0,-850.0,-115.0,0.0,53.875,0.1875,7.5,-22.1875,20.0,235.25,1.125,99.3125,-0.33935546875,-0.68280029296875,0.5732421875,0.29998779296875,23.0,117.0,43.0,20.0,-967.0,-159.0,
89,1.372389316558838,0.021049976348876953,47.50599161852985,64.85040281657157,100535.75,35.0,-837.0,-98.0,0.25,53.0625,0.5,12.75,-25.0625,18.625,234.75,0.9375,99.1875,-0.33892822265625,-0.6822509765625,0.5751953125,0.29803466796875,19.0,130.0,58.0,16.0,-967.0,-157.0,
90,1.3924427032470703,0.020053386688232422,49.866888598264175,64.63461641195495,100535.75,29.0,-826.0,-93.0,0.25,53.0625,0.5,23.5625,-27.5,14.0625,233.8125,0.5625,98.8125,-0.33551025390625,-0.67962646484375,0.58270263671875,0.29327392578125,22.0,163.0,63.0,7.0,-969.0,-146.0,
91,1.4084842205047607,0.01604151725769043,62.33824294398288,64.60846254094929,100535.75,7.0,-796.0,-72.0,0.25,53.0625,0.5,35.1875,-27.375,8.0625,233.0,0.3125,98.1875,-0.333740234375,-0.6783447265625,0.585693359375,0.29229736328125,2.0,173.0,68.0,5.0,-970.0,-140.0,
92,1.4235236644744873,0.015039443969726562,66.49181991122384,64.62836010103354,100535.75,-13.0,-778.0,-70.0,2.1875,53.0625,-0.5625,40.875,-26.875,4.75,232.6875,0.1875,97.8125,-0.3316650390625,-0.6768798828125,0.5888671875,0.2916259765625,-9.0,193.0,63.0,4.0,-971.0,-133.0,
93,1.4375646114349365,0.014040946960449219,71.2202676085037,64.69274442361935,100535.75,-19.0,-754.0,-78.0,2.1875,53.0625,-0.5625,51.5,-26.4375,-0.3125,232.0625,0.125,97.375,-0.3267822265625,-0.6732177734375,0.595947265625,0.291259765625,-22.0,218.0,38.0,2.0,-973.0,-117.0,
94,1.4516088962554932,0.01404428482055664,71.20334091603571,64.7557343045212,100535.75,-36.0,-780.0,-79.0,2.1875,53.0625,-0.5625,56.5,-27.0625,-2.125,231.8125,0.125,96.3125,-0.3238525390625,-0.67108154296875,0.599853515625,0.2913818359375,-39.0,210.0,21.0,2.0,-975.0,-98.0,
95,1.4646391868591309,0.013030290603637695,76.7442592355406,64.86239126492599,100535.75,-41.0,-756.0,-81.0,1.75,53.875,-3.5,65.4375,-26.25,-3.5625,231.3125,0.125,95.0625,-0.317626953125,-0.66607666015625,0.6082763671875,0.292236328125,-44.0,220.0,6.0,2.0,-976.0,-87.0,
96,1.4857099056243896,0.02107071876525879,47.45922581667176,64.61557511098016,100535.75,16.0,-827.0,-136.0,1.75,53.875,-3.5,69.25,-26.4375,-1.375,231.0625,0.125,94.4375,-0.31451416015625,-0.663330078125,0.61273193359375,0.292724609375,-10.0,189.0,-35.0,2.0,-977.0,-76.0,
97,1.5096945762634277,0.023984670639038086,41.693297150071075,64.25140655938503,100535.75,44.0,-857.0,-143.0,1.75,53.875,-3.5,73.1875,-32.9375,-4.3125,230.1875,0.1875,92.375,-0.30419921875,-0.654541015625,0.626708984375,0.29376220703125,40.0,122.0,-102.0,3.0,-979.0,-41.0,
98,1.5329535007476807,0.02325892448425293,42.99424939777561,63.92887974240681,100535.75,23.0,-993.0,-138.0,1.75,52.375,-5.0625,77.75,-44.25,-14.9375,229.625,0.375,90.875,-0.29461669921875,-0.6490478515625,0.6365966796875,0.29443359375,28.0,30.0,-123.0,6.0,-980.0,-15.0,
99,1.5576426982879639,0.024689197540283203,40.50354404465303,63.55757973816002,100535.75,-13.0,-1120.0,-58.0,1.75,52.375,-5.0625,82.9375,-68.375,-32.1875,228.625,1.125,88.5625,-0.2744140625,-0.64208984375,0.65228271484375,0.2947998046875,-34.0,-139.0,-83.0,20.0,-980.0,24.0,
100,1.5799334049224854,0.022290706634521484,44.86174513872548,63.293806997457715,100535.75,-28.0,-1189.0,-2.0,1.75,53.5,-8.375,82.0625,-80.0625,-38.1875,227.875,1.9375,87.0,-0.2576904296875,-0.63848876953125,0.662841796875,0.29425048828125,-61.0,-210.0,-53.0,33.0,-978.0,50.0,
101,1.6039979457855225,0.02406454086303711,41.55491707452395,62.967661688954024,100535.75,-63.0,-1360.0,37.0,1.75,53.5,-8.375,69.5625,-87.4375,-41.4375,226.625,3.25,84.9375,-0.23095703125,-0.63458251953125,0.67730712890625,0.29205322265625,-119.0,-384.0,-48.0,56.0,-975.0,86.0,
102,1.6290531158447266,0.0250551700592041,39.911922275404656,62.613059701929416,100535.75,-124.0,-1324.0,52.0,-0.375,53.5,-13.0,48.6875,-86.625,-37.5,225.8125,4.1875,83.9375,-0.21405029296875,-0.634033203125,0.6844482421875,0.289306640625,-196.0,-351.0,-50.0,72.0,-972.0,102.0,
103,1.65217924118042,0.02312612533569336,43.24113899255655,62.341904215193004,100535.75,-114.0,-1270.0,131.0,-0.375,53.5,-13.0,2.5,-77.8125,-14.0,224.25,5.125,83.625,-0.1949462890625,-0.63787841796875,0.6900634765625,0.28094482421875,-202.0,-300.0,23.0,87.0,-970.0,108.0,
104,1.6734981536865234,0.021318912506103516,46.906707821691384,62.14527322357661,100539.75,-90.0,-1169.0,192.0,-3.375,51.5625,-15.0,-24.375,-59.125,-5.125,223.3125,5.375,84.0625,-0.18756103515625,-0.643310546875,0.6898193359375,0.27423095703125,-182.0,-198.0,92.0,92.0,-971.0,100.0,
105,1.6980102062225342,0.024512052536010742,40.79625720983163,61.837084144262874,100539.75,-82.0,-1038.0,175.0,-3.375,51.5625,-15.0,-40.6875,-35.5,-0.5,222.6875,5.4375,84.875,-0.18426513671875,-0.6495361328125,0.68701171875,0.2686767578125,-176.0,-66.0,88.0,93.0,-972.0,86.0,
106,1.7227413654327393,0.024731159210205078,40.43482117034609,61.52983966538333,100539.75,-54.0,-971.0,165.0,-5.25,53.5,-13.75,-50.4375,-10.75,0.125,222.3125,5.5,86.3125,-0.18438720703125,-0.65911865234375,0.6798095703125,0.26336669921875,-148.0,2.0,103.0,94.0,-974.0,61.0,
107,1.7469217777252197,0.02418041229248047,41.355787813054626,61.25059597077761,100539.75,-48.0,-949.0,133.0,-5.25,53.5,-13.75,-48.8125,-3.0625,-3.5,222.375,5.5625,87.3125,-0.18585205078125,-0.66510009765625,0.67431640625,0.26165771484375,-143.0,25.0,88.0,95.0,-974.0,45.0,
108,1.7702841758728027,0.023362398147583008,42.80382491912358,61.00715437212378,100539.75,-65.0,-946.0,148.0,-5.25,52.375,-13.0,-42.9375,-2.375,-6.0,222.5,5.6875,88.1875,-0.1868896484375,-0.67047119140625,0.6690673828125,0.2606201171875,-166.0,30.0,115.0,97.0,-975.0,30.0,
109,1.7924621105194092,0.022177934646606445,45.08986142913966,60.81021147410174,100539.75,-57.0,-967.0,151.0,-5.25,52.375,-13.0,-32.625,-1.875,1.0,222.625,5.75,89.25,-0.18853759765625,-0.67681884765625,0.66290283203125,0.25885009765625,-155.0,7.0,138.0,98.0,-975.0,12.0,
110,1.813349723815918,0.02088761329650879,47.8752639568994,60.66121639708957,100539.75,-34.0,-978.0,136.0,-5.25,52.0,-10.5,-22.75,-1.75,5.3125,222.0625,5.125,89.25,-0.192138671875,-0.67584228515625,0.6640625,0.2554931640625,-123.0,-1.0,124.0,88.0,-976.0,12.0,
111,1.837648630142212,0.024298906326293945,41.15411560387374,60.40327741621092,100539.75,-16.0,-995.0,96.0,-5.25,52.0,-10.5,-14.1875,-3.4375,8.75,221.875,5.0,89.5625,-0.19342041015625,-0.67755126953125,0.66265869140625,0.2537841796875,-102.0,-18.0,89.0,85.0,-976.0,6.0,
112,1.862795114517212,0.025146484375,39.76699029126213,60.12470138404217,100539.75,6.0,-1014.0,91.0,-5.25,52.75,-10.5,-6.6875,-12.3125,10.3125,221.3125,4.6875,89.8125,-0.19415283203125,-0.6790771484375,0.66229248046875,0.25006103515625,-74.0,-36.0,89.0,80.0,-977.0,2.0,
113,1.8860292434692383,0.023234128952026367,43.04013298991288,59.91423536580125,100539.75,1.0,-1017.0,101.0,-5.25,52.75,-10.5,-6.0625,-17.6875,9.625,220.8125,4.5,90.0,-0.19366455078125,-0.68017578125,0.66253662109375,0.246826171875,-75.0,-40.0,101.0,77.0,-977.0,0.0,
114,1.911156415939331,0.025127172470092773,39.79755387082388,59.64974873287341,100539.75,-14.0,-983.0,136.0,-5.25,53.5,-9.6875,-8.75,-16.875,9.0625,219.9375,4.125,90.0625,-0.1932373046875,-0.68072509765625,0.66400146484375,0.2415771484375,-85.0,-5.0,137.0,70.0,-978.0,-1.0,
115,1.9339489936828613,0.022792577743530273,43.87393173568761,59.46382266318358,100539.75,-5.0,-979.0,136.0,-5.25,53.5,-9.6875,-9.125,-15.625,13.4375,219.4375,3.875,90.25,-0.1932373046875,-0.6820068359375,0.66400146484375,0.23809814453125,-72.0,-1.0,140.0,66.0,-978.0,-4.0,
116,1.9579699039459229,0.024020910263061523,41.63039572808211,59.24503730431385,100539.75,10.0,-955.0,138.0,-5.25,53.5,-9.6875,-4.75,-13.625,13.8125,218.875,3.625,90.375,-0.19354248046875,-0.68280029296875,0.664306640625,0.234619140625,-51.0,23.0,146.0,62.0,-978.0,-7.0,
117,1.9802556037902832,0.02228569984436035,44.87182394916179,59.08328186323909,100539.75,3.0,-951.0,109.0,-4.1875,52.75,-9.6875,3.625,-9.1875,7.0625,218.3125,3.3125,90.375,-0.19329833984375,-0.68280029296875,0.66552734375,0.231201171875,-53.0,27.0,116.0,57.0,-978.0,-7.0,
118,2.0029187202453613,0.022663116455078125,44.12455815519273,58.914023223840445,100539.75,-9.0,-959.0,93.0,-4.1875,52.75,-9.6875,10.0,-5.375,1.875,218.0625,3.25,90.25,-0.192626953125,-0.6820068359375,0.6668701171875,0.23040771484375,-65.0,19.0,98.0,56.0,-979.0,-4.0,
119,2.0253303050994873,0.022411584854125977,44.61978064063148,58.75584821911532,100539.75,-36.0,-956.0,46.0,-4.1875,53.875,-8.875,16.4375,-1.0625,-0.375,218.0625,3.25,89.9375,-0.19183349609375,-0.68017578125,0.66876220703125,0.23077392578125,-93.0,22.0,45.0,56.0,-979.0,1.0,
120,2.0436761379241943,0.01834583282470703,54.508291313614386,58.71771841593579,100539.75,-40.0,-943.0,20.0,-4.1875,53.875,-8.875,23.375,1.3125,1.6875,218.0,3.25,89.5,-0.191162109375,-0.67767333984375,0.6712646484375,0.23150634765625,-96.0,35.0,12.0,55.0,-979.0,8.0,
121,2.064699649810791,0.02102351188659668,47.56579230882637,58.60416550711792,100534.75,-16.0,-944.0,-12.0,-3.75,52.75,-10.5,29.0,5.8125,7.875,217.9375,3.125,88.9375,-0.1912841796875,-0.6741943359375,0.67449951171875,0.232177734375,-70.0,34.0,-29.0,53.0,-979.0,17.0,
122,2.08691143989563,0.022211790084838867,45.021134999946334,58.459596160966676,100534.75,4.0,-911.0,-38.0,-3.75,52.75,-10.5,30.5,6.5625,8.0,217.875,2.9375,88.375,-0.1917724609375,-0.6702880859375,0.677978515625,0.23297119140625,-46.0,67.0,-66.0,51.0,-978.0,27.0,
123,2.110057830810547,0.023146390914916992,43.20327966791302,58.292241190731445,100534.75,36.0,-909.0,-37.0,-3.25,53.5,-11.25,24.625,11.75,-1.8125,218.0625,2.875,87.5625,-0.19232177734375,-0.6649169921875,0.68218994140625,0.235595703125,-13.0,69.0,-78.0,49.0,-978.0,40.0,
124,2.129244565963745,0.019186735153198242,52.119341410375895,58.23661686504046,100534.75,46.0,-974.0,-49.0,-3.25,53.5,-11.25,16.3125,18.25,-9.375,218.5,3.0,87.1875,-0.19256591796875,-0.66241455078125,0.68341064453125,0.23895263671875,-5.0,3.0,-96.0,52.0,-978.0,47.0,
125,2.1530699729919434,0.023825407028198242,41.97200068046953,58.05663613723517,100534.75,39.0,-1005.0,-45.0,-3.25,53.5,-11.25,7.25,20.25,-14.0,219.125,3.25,87.0,-0.19305419921875,-0.660888671875,0.683349609375,0.24298095703125,-16.0,-27.0,-96.0,56.0,-977.0,50.0,
126,2.173952341079712,0.020882368087768555,47.887289209585894,57.958952282008646,100534.75,32.0,-1048.0,-36.0,-3.6875,52.375,-12.5625,-2.0625,18.8125,-14.0,219.75,3.5,86.9375,-0.19366455078125,-0.6605224609375,0.68212890625,0.246826171875,-28.0,-71.0,-87.0,60.0,-977.0,51.0,
127,2.1919848918914795,0.018032550811767578,55.45527143877092,57.93835553784807,100534.75,33.0,-1056.0,-7.0,-3.6875,52.375,-12.5625,-8.875,18.25,-10.8125,220.3125,3.75,87.0625,-0.19476318359375,-0.66094970703125,0.68023681640625,0.24993896484375,-30.0,-79.0,-57.0,64.0,-977.0,49.0,
128,2.211188316345215,0.01920342445373535,52.07404556459122,57.887425984398334,100534.75,62.0,-1085.0,15.0,-3.6875,53.5,-13.0,-11.8125,18.875,-7.25,220.8125,3.875,87.25,-0.196533203125,-0.6617431640625,0.67803955078125,0.25262451171875,-3.0,-107.0,-30.0,66.0,-977.0,46.0,
129,2.2342703342437744,0.02308201789855957,43.323768502163965,57.73697033114937,100534.75,61.0,-1083.0,0.0,-3.6875,53.5,-13.0,-7.75,15.875,-6.875,221.3125,4.0,87.4375,-0.19805908203125,-0.6622314453125,0.6761474609375,0.2550048828125,-6.0,-105.0,-44.0,68.0,-977.0,43.0,
130,2.2591958045959473,0.02492547035217285,40.11960399827825,57.54259977622889,100534.75,49.0,-1069.0,-14.0,-3.6875,53.5,-13.0,-1.0625,7.125,0.1875,221.625,4.0,87.5625,-0.19989013671875,-0.66265869140625,0.674560546875,0.25677490234375,-24.0,-91.0,-59.0,69.0,-977.0,41.0,
131,2.280522108078003,0.021326303482055664,46.89045154221959,57.44298620740197,100534.75,57.0,-1028.0,-37.0,-3.6875,53.875,-11.25,3.25,1.4375,8.0,221.5625,3.875,87.5625,-0.20111083984375,-0.66241455078125,0.67462158203125,0.25616455078125,-9.0,-51.0,-78.0,66.0,-977.0,40.0,
132,2.3018147945404053,0.021292686462402344,46.964482465176694,57.34605595249723,100534.75,79.0,-1032.0,-20.0,-3.6875,53.875,-11.25,5.875,-2.125,12.625,221.3125,3.625,87.5,-0.2020263671875,-0.6614990234375,0.67578125,0.25482177734375,16.0,-55.0,-62.0,62.0,-977.0,42.0,
133,2.3171112537384033,0.015296459197998047,65.37460644035039,57.39905659921127,100534.75,94.0,-1004.0,-16.0,-3.6875,53.875,-11.25,5.875,-2.125,12.625,221.3125,3.625,87.5,-0.2020263671875,-0.6614990234375,0.67578125,0.25482177734375,33.0,-26.0,-60.0,60.0,-977.0,43.0,
134,2.3338797092437744,0.016768455505371094,59.635784564636296,57.415127039010414,100534.75,104.0,-1000.0,-14.0,-4.375,52.0,-12.5625,7.25,-5.0625,9.6875,220.8125,3.3125,87.3125,-0.2027587890625,-0.65997314453125,0.67791748046875,0.2525634765625,50.0,-28.0,-66.0,57.0,-977.0,45.0,
135,2.3505072593688965,0.01662755012512207,60.14115082949771,57.4344110029454,100534.75,109.0,-1016.0,-18.0,-4.375,52.0,-12.5625,5.75,-4.375,4.875,220.625,3.1875,87.1875,-0.20257568359375,-0.6591796875,0.6790771484375,0.25152587890625,41.0,-17.0,-58.0,55.0,-977.0,47.0,
136,2.372572422027588,0.022065162658691406,45.32030946103644,57.321748637613815,100534.75,95.0,-1002.0,-10.0,-4.375,52.75,-12.5625,3.8125,-4.3125,3.4375,220.5625,3.1875,87.125,-0.20245361328125,-0.65899658203125,0.679443359375,0.25115966796875,40.0,-24.0,-58.0,54.0,-977.0,48.0,
137,2.3915321826934814,0.018959760665893555,52.74328181783886,57.28545113940415,100534.75,77.0,-1002.0,-14.0,-4.375,52.75,-12.5625,-1.0625,-2.9375,1.6875,220.4375,3.1875,87.3125,-0.201904296875,-0.660400390625,0.6785888671875,0.25030517578125,16.0,-16.0,-47.0,55.0,-978.0,45.0,
138,2.4085752964019775,0.017043113708496094,58.67472441385485,57.29528165723102,100534.75,63.0,-990.0,3.0,-4.375,52.75,-12.5625,-2.125,-2.0,1.5625,220.4375,3.1875,87.3125,-0.201904296875,-0.6605224609375,0.67852783203125,0.25006103515625,7.0,-12.0,-41.0,55.0,-978.0,44.0,
139,2.423617124557495,0.015041828155517578,66.48128071009668,57.35229322799024,100534.75,59.0,-989.0,6.0,-4.0625,53.5,-13.25,-2.5,-0.875,1.4375,220.4375,3.1875,87.375,-0.2020263671875,-0.66064453125,0.67840576171875,0.24993896484375,4.0,-11.0,-38.0,55.0,-978.0,44.0,
140,2.4469335079193115,0.023316383361816406,42.888298089901426,57.214468454864345,100535.5,36.0,-973.0,-4.0,-4.0625,53.5,-13.25,-2.9375,0.4375,1.3125,220.375,3.125,87.4375,-0.202392578125,-0.66107177734375,0.67803955078125,0.24957275390625,-17.0,6.0,-50.0,54.0,-978.0,43.0,
141,2.4674878120422363,0.020554304122924805,48.651610583336236,57.14313939540808,100535.5,34.0,-963.0,3.0,-2.875,53.0625,-13.25,-2.6875,1.25,2.25,220.375,3.125,87.4375,-0.20257568359375,-0.66119384765625,0.67791748046875,0.2493896484375,-18.0,11.0,-41.0,54.0,-978.0,42.0,
142,2.483062744140625,0.015574932098388672,64.20573737868536,57.1874393166595,100535.5,36.0,-963.0,-3.0,-2.875,53.0625,-13.25,-2.5,2.25,0.8125,220.375,3.0625,87.625,-0.2034912109375,-0.6617431640625,0.67724609375,0.24908447265625,-10.0,9.0,-56.0,52.0,-978.0,40.0,
143,2.50356125831604,0.02049851417541504,48.78402363422776,57.118634315417346,100535.5,34.0,-954.0,-20.0,-2.875,53.0625,-13.25,-4.1875,2.8125,-1.125,220.375,3.0625,87.8125,-0.20440673828125,-0.662841796875,0.67596435546875,0.24884033203125,-16.0,19.0,-65.0,52.0,-978.0,37.0,
144,2.5316994190216064,0.028138160705566406,35.53892560582952,56.8787901589241,100535.5,28.0,-976.0,-28.0,-2.5625,53.0625,-12.5,-9.375,0.5,-0.75,220.375,3.0,88.25,-0.2056884765625,-0.665283203125,0.67352294921875,0.2479248046875,-26.0,17.0,-52.0,51.0,-978.0,29.0,
145,2.557467222213745,0.025767803192138672,38.80812006143711,56.69671882421544,100535.5,31.0,-965.0,8.0,-2.5625,53.0625,-12.5,-12.4375,-1.125,0.5,220.375,2.9375,88.5625,-0.2064208984375,-0.6669921875,0.671875,0.24713134765625,-19.0,13.0,-15.0,51.0,-979.0,24.0,
146,2.5845398902893066,0.027072668075561523,36.93762274220394,56.48974525351866,100535.5,43.0,-981.0,22.0,-2.5625,52.375,-12.875,-10.1875,-1.6875,-0.5625,220.3125,3.0,88.875,-0.20684814453125,-0.66900634765625,0.6700439453125,0.246337890625,-8.0,-4.0,-6.0,51.0,-979.0,18.0,
147,2.6071207523345947,0.022580862045288086,44.28528893159189,56.38403969910719,100535.5,54.0,-1003.0,8.0,-2.5625,52.375,-12.875,-8.6875,-3.5,0.9375,220.3125,2.9375,89.0625,-0.20697021484375,-0.67010498046875,0.66912841796875,0.24566650390625,3.0,-24.0,-7.0,51.0,-979.0,15.0,
148,2.630384683609009,0.023263931274414062,42.98499631056817,56.26553443769951,100535.5,57.0,-1022.0,25.0,-4.0625,52.75,-11.1875,-7.6875,-6.25,-1.1875,220.125,2.9375,89.3125,-0.20648193359375,-0.671875,0.6680908203125,0.24420166015625,3.0,-54.0,9.0,51.0,-979.0,11.0,
149,2.658759832382202,0.02837514877319336,35.242105970726136,56.04116557850154,100535.5,41.0,-1037.0,42.0,-4.0625,52.75,-11.1875,-7.875,-5.625,-2.4375,220.0625,3.0,89.4375,-0.20587158203125,-0.673095703125,0.66729736328125,0.2435302734375,-10.0,-58.0,33.0,52.0,-979.0,8.0,
150,2.6827914714813232,0.024031639099121094,41.61180999246002,55.911911751074854,100535.5,35.0,-1036.0,51.0,-2.875,53.5,-10.75,-7.375,-1.5625,0.75,220.0,3.0625,89.6875,-0.2056884765625,-0.67462158203125,0.66607666015625,0.24273681640625,-24.0,-45.0,28.0,52.0,-979.0,5.0,
151,2.7068557739257812,0.024064302444458008,41.555328782459654,55.78427984768583,100535.5,25.0,-1012.0,26.0,-2.875,53.5,-10.75,-5.875,-1.0625,6.5,219.875,2.9375,89.75,-0.2064208984375,-0.675048828125,0.66571044921875,0.24176025390625,-24.0,-33.0,23.0,50.0,-979.0,3.0,
152,2.731191635131836,0.024335861206054688,41.091621600438906,55.65336318579596,100535.5,56.0,-989.0,21.0,-3.25,52.75,-10.0,-3.625,-1.5,10.6875,219.5625,2.625,89.875,-0.20819091796875,-0.67523193359375,0.66583251953125,0.2396240234375,21.0,-7.0,2.0,45.0,-979.0,1.0,
153,2.755403518676758,0.024211883544921875,41.30203245627856,55.52725724669032,100535.5,88.0,-975.0,12.0,-3.25,52.75,-10.0,-0.8125,-3.0625,7.3125,219.3125,2.4375,89.9375,-0.2088623046875,-0.67523193359375,0.66607666015625,0.23828125,45.0,4.0,12.0,42.0,-979.0,0.0,
154,2.779974937438965,0.02457141876220703,40.69769066563167,55.39618286698353,100535.5,76.0,-970.0,6.0,-2.1875,52.375,-11.6875,-0.1875,-1.5625,2.3125,219.1875,2.375,89.9375,-0.2091064453125,-0.6751708984375,0.66632080078125,0.237548828125,36.0,10.0,-1.0,41.0,-979.0,0.0,
155,2.805042028427124,0.02506709098815918,39.89294172476436,55.257639076058126,100535.25,67.0,-1004.0,-20.0,-2.1875,52.375,-11.6875,-1.25,-0.9375,1.5,219.1875,2.375,89.9375,-0.2091064453125,-0.67529296875,0.66619873046875,0.2374267578125,25.0,-24.0,-20.0,41.0,-979.0,0.0,
156,2.829625129699707,0.024583101272583008,40.67835009552997,55.130977726563884,100535.25,59.0,-976.0,-22.0,-2.5625,53.0625,-10.75,-2.9375,-2.6875,4.0625,219.0,2.25,90.0,-0.20953369140625,-0.67572021484375,0.6661376953125,0.236083984375,25.0,2.0,-20.0,39.0,-979.0,-1.0,
157,2.8526220321655273,0.022996902465820312,43.484117110392305,55.03708455929427,100535.25,72.0,-980.0,-14.0,-2.5625,53.0625,-10.75,-3.8125,-4.0,7.875,218.8125,2.125,90.125,-0.2098388671875,-0.67620849609375,0.666015625,0.23480224609375,42.0,0.0,-1.0,37.0,-979.0,-2.0,
158,2.877685785293579,0.025063753128051758,39.898254458977405,54.90523003152722,100535.25,94.0,-956.0,0.0,-2.1875,53.5,-10.375,-0.25,-4.9375,3.875,218.75,2.125,90.125,-0.2093505859375,-0.676513671875,0.666015625,0.2342529296875,57.0,23.0,2.0,37.0,-979.0,-2.0,
159,2.900736093521118,0.023050308227539062,43.38336781133637,54.81367310701974,100535.25,88.0,-954.0,-12.0,-2.1875,53.5,-10.375,2.375,-5.0625,-1.125,218.75,2.25,90.125,-0.207275390625,-0.67694091796875,0.6661376953125,0.23455810546875,31.0,23.0,-14.0,40.0,-979.0,-2.0,
160,2.9258015155792236,0.02506542205810547,39.89559791500209,54.68586954652823,100535.25,57.0,-945.0,-19.0,-2.1875,53.0625,-10.375,2.5,-5.75,-4.4375,218.8125,2.5,90.0625,-0.205810546875,-0.67724609375,0.666259765625,0.23468017578125,15.0,34.0,-17.0,42.0,-979.0,-1.0,
161,2.9569005966186523,0.03109908103942871,32.15529097892502,54.448905108311955,100535.25,54.0,-948.0,-31.0,-2.1875,53.0625,-10.375,-0.5,-4.75,-3.0,218.75,2.5625,90.0625,-0.2044677734375,-0.6776123046875,0.6663818359375,0.23443603515625,10.0,31.0,-29.0,44.0,-979.0,-1.0,
162,2.985976457595825,0.02907586097717285,34.392790665256285,54.253609263361426,100535.25,60.0,-954.0,-34.0,-2.1875,52.375,-10.0,-1.0,-6.6875,-6.4375,218.75,2.625,90.125,-0.20330810546875,-0.67822265625,0.66619873046875,0.23431396484375,14.0,34.0,-28.0,45.0,-979.0,-2.0,
163,3.002018928527832,0.016042470932006836,62.33453713198686,54.29679288529137,100535.25,55.0,-963.0,-29.0,-2.1875,52.375,-10.0,-1.4375,-7.375,-7.625,218.75,2.8125,90.1875,-0.2017822265625,-0.6790771484375,0.665771484375,0.2342529296875,6.0,16.0,-25.0,48.0,-979.0,-3.0,
164,3.0160577297210693,0.014038801193237305,71.23115330400965,54.375617012863685,100535.25,50.0,-958.0,3.0,-2.875,52.75,-10.75,-2.0625,-6.5,-9.625,218.75,3.0,90.25,-0.199951171875,-0.679931640625,0.6654052734375,0.234375,0.0,20.0,8.0,51.0,-979.0,-4.0,
165,3.038625478744507,0.0225677490234375,44.31102096010818,54.30086766341944,100535.25,45.0,-999.0,-9.0,-2.875,52.75,-10.75,-1.1875,-5.1875,-12.9375,218.9375,3.25,90.25,-0.19696044921875,-0.68115234375,0.6646728515625,0.23553466796875,-22.0,-21.0,4.0,57.0,-978.0,-5.0,
166,3.0644688606262207,0.025843381881713867,38.69462613589188,54.169256582388016,100535.25,17.0,-1021.0,-2.0,-4.0625,53.875,-10.0,-2.5625,-4.9375,-11.6875,219.125,3.625,90.3125,-0.19500732421875,-0.6820068359375,0.6640625,0.236328125,-44.0,-31.0,3.0,60.0,-978.0,-5.0,
167,3.0855398178100586,0.02107095718383789,47.458688813958226,54.12343053752168,100535.25,7.0,-1019.0,1.0,-4.0625,53.875,-10.0,-2.5625,-5.5,-9.3125,219.1875,3.6875,90.375,-0.1942138671875,-0.68243408203125,0.663818359375,0.2364501953125,-48.0,-51.0,3.0,63.0,-978.0,-6.0,
168,3.1025238037109375,0.016983985900878906,58.87899376719636,54.149463671819284,100535.25,15.0,-1024.0,2.0,-4.0625,53.875,-10.0,-3.0625,-4.9375,-4.125,219.1875,3.8125,90.4375,-0.193115234375,-0.68310546875,0.6634521484375,0.23638916015625,-49.0,-46.0,10.0,65.0,-978.0,-7.0,
169,3.11991548538208,0.017391681671142578,57.49875250185068,54.168133974085336,100535.25,25.0,-1021.0,13.0,-3.6875,53.875,-10.75,-2.0625,-4.9375,-0.25,219.0625,3.75,90.4375,-0.19287109375,-0.6834716796875,0.6634521484375,0.235595703125,-39.0,-43.0,21.0,64.0,-978.0,-8.0,
170,3.14546537399292,0.025549888610839844,39.13911388152738,54.046056715670794,100535.25,31.0,-1007.0,-4.0,-3.6875,53.875,-10.75,1.875,-5.625,-1.5,218.875,3.6875,90.4375,-0.19219970703125,-0.68353271484375,0.6640625,0.234375,-32.0,-28.0,3.0,63.0,-978.0,-8.0,
171,3.1680221557617188,0.022556781768798828,44.33256526794208,53.97689523382919,100535.25,17.0,-992.0,-18.0,-4.375,53.875,-10.375,3.1875,-5.9375,-2.0,218.6875,3.6875,90.375,-0.19158935546875,-0.68341064453125,0.66455078125,0.23370361328125,-45.0,-13.0,-10.0,63.0,-978.0,-7.0,
172,3.1880853176116943,0.020063161849975586,49.84259248256111,53.950877365117435,100534.75,10.0,-998.0,-28.0,-4.375,53.875,-10.375,2.375,-7.5,-0.5,218.5,3.625,90.375,-0.19110107421875,-0.68341064453125,0.6651611328125,0.23248291015625,-51.0,-20.0,-21.0,62.0,-978.0,-6.0,
173,3.207125186920166,0.01903986930847168,52.52136891270865,53.94239074469482,100534.75,21.0,-994.0,-17.0,-4.375,53.875,-10.375,-1.125,-6.1875,3.0,218.25,3.5,90.4375,-0.191162109375,-0.68359375,0.66546630859375,0.23095703125,-39.0,-15.0,-9.0,60.0,-978.0,-7.0,
174,3.22617506980896,0.019049882888793945,52.49376102927373,53.93383689196492,100534.75,38.0,-1003.0,-10.0,-5.1875,52.75,-10.375,-2.6875,-6.5,4.5625,218.0,3.375,90.5,-0.1912841796875,-0.68402099609375,0.66552734375,0.2293701171875,-19.0,-24.0,-2.0,57.0,-978.0,-8.0,
175,3.2456753253936768,0.019500255584716797,51.28137914170436,53.917900731113264,100534.75,46.0,-992.0,-4.0,-5.1875,52.75,-10.375,-0.25,-6.625,1.875,217.8125,3.3125,90.5,-0.19097900390625,-0.68426513671875,0.665771484375,0.2281494140625,-10.0,-13.0,4.0,56.0,-978.0,-9.0,
176,3.263629913330078,0.017954587936401367,55.69607075039505,53.92768318525938,100534.75,37.0,-998.0,-11.0,-4.0625,53.875,-10.75,2.625,-6.3125,-1.1875,217.6875,3.3125,90.5,-0.19012451171875,-0.68426513671875,0.66619873046875,0.22747802734375,-19.0,-20.0,-2.0,56.0,-978.0,-8.0,
177,3.2917063236236572,0.0280764102935791,35.61708884944931,53.77150407669129,100534.75,26.0,-999.0,-30.0,-4.0625,53.875,-10.75,3.75,-6.25,-0.625,217.5625,3.3125,90.4375,-0.1893310546875,-0.68414306640625,0.66680908203125,0.22686767578125,-33.0,-19.0,-16.0,56.0,-978.0,-7.0,
178,3.311757802963257,0.02005147933959961,49.87163206582483,53.747891781437396,100534.75,35.0,-996.0,-17.0,-4.375,53.875,-10.75,1.8125,-5.625,2.1875,217.375,3.25,90.375,-0.18890380859375,-0.68414306640625,0.66729736328125,0.22589111328125,-26.0,-16.0,-16.0,55.0,-979.0,-7.0,
179,3.3298051357269287,0.018047332763671875,55.40984992601987,53.75689948923169,100534.75,39.0,-992.0,-15.0,-4.375,53.5,-10.375,-0.9375,-3.0,3.4375,217.25,3.1875,90.4375,-0.18896484375,-0.68426513671875,0.66741943359375,0.2249755859375,-14.0,-13.0,-8.0,54.0,-979.0,-7.0,
180,3.346353054046631,0.01654791831970215,60.430561758900396,53.78990115293786,100534.75,51.0,-977.0,-24.0,-4.375,53.5,-10.375,-2.375,-0.5,2.6875,217.125,3.0625,90.4375,-0.1893310546875,-0.6844482421875,0.66729736328125,0.224365234375,-1.0,1.0,-15.0,53.0,-979.0,-8.0,
181,3.3649096488952637,0.018556594848632812,53.88919724534896,53.7904487448643,100534.75,55.0,-985.0,-27.0,-4.0625,53.0625,-10.75,-1.9375,-0.5,-0.125,217.125,3.0625,90.5,-0.18951416015625,-0.68475341796875,0.66705322265625,0.2242431640625,2.0,-5.0,-18.0,53.0,-979.0,-9.0,
182,3.3819544315338135,0.017044782638549805,58.66897931208124,53.81503615276619,100534.75,55.0,-991.0,-49.0,-4.0625,53.0625,-10.75,-1.5,-0.3125,-2.25,217.125,3.125,90.5625,-0.189453125,-0.6849365234375,0.66680908203125,0.22430419921875,1.0,-12.0,-39.0,53.0,-979.0,-9.0,
183,3.3949878215789795,0.013033390045166016,76.72600885376652,53.90299159155401,100534.75,40.0,-983.0,-53.0,-4.0625,53.0625,-10.75,-2.0,-1.8125,-3.875,217.1875,3.1875,90.625,-0.18914794921875,-0.68560791015625,0.66619873046875,0.224365234375,-14.0,-4.0,-41.0,54.0,-979.0,-11.0,
184,3.449639320373535,0.054651498794555664,18.297759842949066,53.33890964000145,100534.75,44.0,-983.0,-18.0,-3.6875,53.0625,-11.6875,-5.0625,-4.8125,1.9375,217.0,3.125,90.9375,-0.18878173828125,-0.68756103515625,0.6649169921875,0.2225341796875,-9.0,-4.0,-2.0,53.0,-979.0,-16.0,
185,3.4691953659057617,0.019556045532226562,51.13508241490295,53.32648654443793,100534.75,52.0,-986.0,-5.0,-4.75,52.375,-10.75,-4.0,-5.25,2.1875,216.8125,3.0625,91.0,-0.18865966796875,-0.68817138671875,0.6646728515625,0.22149658203125,0.0,-6.0,12.0,53.0,-979.0,-17.0,
186,3.4912540912628174,0.022058725357055664,45.33353508933107,53.27598482891349,100534.75,46.0,-988.0,-16.0,-4.75,52.375,-10.75,-2.0,-4.5625,-0.8125,216.75,3.0625,91.0625,-0.188232421875,-0.68865966796875,0.66448974609375,0.22088623046875,-6.0,-9.0,2.0,52.0,-979.0,-18.0,
187,3.5072970390319824,0.01604294776916504,62.332684391208076,53.31741164746405,100534.75,34.0,-982.0,-8.0,-4.75,52.375,-10.75,-1.25,-5.125,-1.75,216.6875,3.0625,91.125,-0.18756103515625,-0.68896484375,0.66448974609375,0.220458984375,-18.0,-3.0,11.0,53.0,-979.0,-19.0,
188,3.5263490676879883,0.01905202865600586,52.487848829933675,53.31292971607604,100534.75,28.0,-988.0,-6.0,-4.375,52.75,-11.1875,-1.8125,-5.25,-0.75,216.5625,3.125,91.125,-0.18695068359375,-0.6893310546875,0.66448974609375,0.2198486328125,-24.0,-9.0,13.0,53.0,-979.0,-19.0,
189,3.5479114055633545,0.02156233787536621,46.37716029589005,53.27077776058212,100534.75,31.0,-975.0,-1.0,-4.375,52.75,-11.1875,-3.125,-3.5625,0.875,216.4375,3.0625,91.1875,-0.18670654296875,-0.68963623046875,0.66448974609375,0.2191162109375,-21.0,3.0,18.0,53.0,-979.0,-20.0,
190,3.563457727432251,0.015546321868896484,64.32389657393492,53.31899927908218,100532.0,50.0,-996.0,5.0,-4.375,53.0625,-10.75,-3.75,-1.3125,1.3125,216.375,3.0,91.25,-0.1868896484375,-0.68994140625,0.664306640625,0.21856689453125,-2.0,-17.0,26.0,52.0,-979.0,-21.0,
191,3.585515260696411,0.022057533264160156,45.33598512689697,53.269889015310525,100532.0,45.0,-986.0,-1.0,-4.375,53.0625,-10.75,-2.6875,-1.4375,-0.75,216.375,3.0,91.25,-0.186767578125,-0.690185546875,0.66412353515625,0.2183837890625,-6.0,-7.0,20.0,52.0,-979.0,-22.0,
192,3.600555658340454,0.015040397644042969,66.48760382981422,53.32510262832472,100532.0,40.0,-990.0,2.0,-4.375,53.0625,-10.75,-2.0625,-0.6875,-1.6875,216.375,3.0625,91.25,-0.18670654296875,-0.69024658203125,0.6640625,0.2183837890625,-11.0,-11.0,24.0,52.0,-979.0,-22.0,
193,3.615596055984497,0.015040397644042969,66.48760382981422,53.379856878798286,100532.0,37.0,-988.0,0.0,-4.75,53.875,-9.5625,-0.5625,-0.3125,-2.375,216.375,3.0625,91.25,-0.18646240234375,-0.6903076171875,0.6640625,0.21856689453125,-15.0,-9.0,22.0,53.0,-978.0,-22.0,
194,3.633643627166748,0.018047571182250977,55.409117930697384,53.389935807014496,100532.0,28.0,-992.0,-29.0,-4.75,53.875,-9.5625,0.3125,0.8125,-1.375,216.4375,3.0625,91.25,-0.1864013671875,-0.690185546875,0.66412353515625,0.21868896484375,-25.0,-13.0,-7.0,53.0,-978.0,-21.0,
195,3.6516177654266357,0.017974138259887695,55.635490588812694,53.40098896611027,100532.0,28.0,-985.0,-29.0,-4.75,53.875,-9.5625,0.0625,0.1875,0.25,216.4375,3.0625,91.25,-0.1864013671875,-0.69012451171875,0.6641845703125,0.21868896484375,-24.0,-6.0,-7.0,53.0,-978.0,-21.0,
196,3.6756811141967773,0.0240633487701416,41.55697569578615,53.323450514512494,100532.0,34.0,-980.0,-28.0,-4.0625,53.0625,-8.75,-0.1875,-0.125,1.4375,216.375,3.0625,91.25,-0.18658447265625,-0.69012451171875,0.66424560546875,0.218505859375,-17.0,-1.0,-7.0,52.0,-979.0,-21.0,
197,3.6927263736724854,0.017045259475708008,58.66733806106892,53.348117370548586,100532.0,33.0,-986.0,-38.0,-4.0625,53.0625,-8.75,-1.6875,0.125,0.75,216.375,3.0,91.25,-0.186767578125,-0.69024658203125,0.66412353515625,0.21832275390625,-18.0,-7.0,-16.0,52.0,-979.0,-22.0,
198,3.710777759552002,0.0180513858795166,55.39740863524098,53.35808631770616,100532.0,33.0,-979.0,-22.0,-4.0625,53.0625,-8.75,-2.5,0.0625,0.5625,216.375,3.0,91.3125,-0.1868896484375,-0.69036865234375,0.6639404296875,0.21820068359375,-19.0,0.0,0.0,52.0,-979.0,-22.0,
199,3.735344648361206,0.0245668888092041,40.70519501945827,53.27486985365769,100532.0,37.0,-989.0,-26.0,-4.75,52.75,-10.75,-3.3125,1.3125,0.0625,216.375,3.0,91.375,-0.18731689453125,-0.69085693359375,0.663330078125,0.2181396484375,-14.0,-10.0,-2.0,51.0,-978.0,-24.0,
200,3.755913019180298,0.020568370819091797,48.618337776747424,53.24936945521934,100532.0,37.0,-991.0,-12.0,-4.75,52.75,-10.75,-2.0625,0.875,-0.1875,216.375,3.0,91.4375,-0.18756103515625,-0.69110107421875,0.6630859375,0.21807861328125,-14.0,-12.0,12.0,51.0,-978.0,-25.0,
201,3.7779719829559326,0.022058963775634766,45.33304511359461,53.20314732528405,100532.0,34.0,-993.0,-13.0,-3.25,53.875,-8.75,-1.5,0.625,0.0,216.375,3.0,91.4375,-0.18768310546875,-0.691162109375,0.66302490234375,0.218017578125,-18.0,-27.0,4.0,51.0,-978.0,-25.0,
202,3.8090548515319824,0.031082868576049805,32.172062805378495,53.031528259236445,100532.0,36.0,-998.0,-22.0,-3.25,53.875,-8.75,-1.375,0.9375,2.8125,216.3125,2.875,91.4375,-0.18829345703125,-0.69110107421875,0.66302490234375,0.2176513671875,-13.0,-18.0,2.0,50.0,-979.0,-25.0,
203,3.8281054496765137,0.01905059814453125,52.49179014817781,53.028842248103196,100532.0,47.0,-977.0,-30.0,-3.6875,52.75,-9.1875,-1.3125,1.125,2.875,216.25,2.8125,91.5,-0.189208984375,-0.69110107421875,0.66290283203125,0.21722412109375,0.0,1.0,-4.0,48.0,-979.0,-26.0,
204,3.8491647243499756,0.021059274673461914,47.485016246079994,52.99851126388214,100532.0,48.0,-982.0,-29.0,-3.6875,52.75,-9.1875,-1.375,1.0625,2.5,216.25,2.75,91.5,-0.18939208984375,-0.69110107421875,0.662841796875,0.21710205078125,0.0,-3.0,-2.0,48.0,-979.0,-26.0,
205,3.87023663520813,0.021071910858154297,47.45654092462266,52.96833742285521,100532.0,42.0,-987.0,-15.0,-4.375,52.375,-9.1875,-0.6875,1.4375,0.625,216.25,2.75,91.5625,-0.18988037109375,-0.691162109375,0.66259765625,0.21722412109375,-4.0,-12.0,-3.0,47.0,-979.0,-26.0,
206,3.8922932147979736,0.02205657958984375,45.33794534763058,52.925098041641824,100532.0,31.0,-985.0,-37.0,-4.375,52.375,-9.1875,-2.25,2.75,0.8125,216.3125,2.75,91.5625,-0.19036865234375,-0.6912841796875,0.66229248046875,0.2174072265625,-11.0,-11.0,-2.0,47.0,-979.0,-27.0,
207,3.9283971786499023,0.03610396385192871,27.6977897524285,52.69324627484358,100532.0,38.0,-982.0,-29.0,-4.0625,52.0,-10.75,-1.5625,0.625,3.375,216.25,2.625,91.6875,-0.19091796875,-0.69140625,0.66204833984375,0.2169189453125,-14.0,-10.0,-7.0,46.0,-979.0,-28.0,
208,3.9564738273620605,0.028076648712158203,35.616786399687506,52.57206519641807,100530.25,38.0,-980.0,-32.0,-4.0625,52.0,-10.75,-1.0625,0.75,3.625,216.1875,2.5625,91.6875,-0.19207763671875,-0.69146728515625,0.66192626953125,0.216552734375,-1.0,5.0,4.0,44.0,-979.0,-29.0,
209,3.978532552719116,0.022058725357055664,45.33353508933107,52.53193161814387,100530.25,46.0,-974.0,-27.0,-3.6875,53.875,-10.0,-0.5625,0.375,3.3125,216.1875,2.5,91.6875,-0.1922607421875,-0.69140625,0.6619873046875,0.21636962890625,3.0,4.0,1.0,43.0,-979.0,-29.0,
210,4.004602909088135,0.026070356369018555,38.3577418676324,52.43965625740853,100530.25,43.0,-975.0,-35.0,-3.6875,53.875,-10.0,1.0625,0.4375,0.25,216.125,2.5,91.6875,-0.1925048828125,-0.691162109375,0.66217041015625,0.21612548828125,0.0,9.0,4.0,42.0,-979.0,-29.0,
211,4.0186402797698975,0.014037370681762695,71.23841228323454,52.50532152932126,100530.25,42.0,-969.0,-24.0,-4.0625,53.0625,-9.5625,0.625,0.875,-0.3125,216.125,2.5,91.6875,-0.19256591796875,-0.69110107421875,0.6622314453125,0.2161865234375,1.0,-2.0,-3.0,42.0,-979.0,-28.0,
212,4.039614200592041,0.020973920822143555,47.678257607620694,52.480259122004654,100530.25,28.0,-981.0,-28.0,-4.0625,53.0625,-9.5625,-0.3125,0.4375,-0.25,216.125,2.5,91.6875,-0.192626953125,-0.69110107421875,0.66217041015625,0.2161865234375,-14.0,-1.0,-2.0,42.0,-979.0,-28.0,
213,4.065694808959961,0.026080608367919922,38.34266386324161,52.389569313119985,100530.25,27.0,-985.0,-18.0,-4.0625,53.0625,-9.5625,-1.6875,2.25,2.6875,216.125,2.4375,91.6875,-0.193115234375,-0.69110107421875,0.662109375,0.21612548828125,-14.0,-5.0,11.0,42.0,-979.0,-29.0,
214,4.086745023727417,0.021050214767456055,47.50545355698769,52.364411960503475,100530.25,46.0,-997.0,8.0,-4.0625,54.25,-9.5625,-0.4375,3.25,4.75,216.0625,2.3125,91.6875,-0.19451904296875,-0.69091796875,0.6619873046875,0.21575927734375,7.0,-14.0,36.0,39.0,-979.0,-29.0,
215,4.104792356491089,0.018047332763671875,55.40984992601987,52.37780168344229,100530.25,45.0,-990.0,12.0,-4.0625,54.25,-9.5625,2.9375,4.4375,3.5625,216.0625,2.25,91.6875,-0.19537353515625,-0.69036865234375,0.6622314453125,0.21588134765625,3.0,-6.0,40.0,38.0,-979.0,-29.0,
216,4.1258485317230225,0.021056175231933594,47.49200597853164,52.352867134895725,100530.25,35.0,-980.0,7.0,-3.25,53.0625,-9.5625,4.5625,4.375,3.125,216.0625,2.1875,91.625,-0.19573974609375,-0.69000244140625,0.66253662109375,0.21600341796875,-2.0,-1.0,35.0,38.0,-979.0,-28.0,
217,4.144356966018677,0.018508434295654297,54.02942161535489,52.36035452044168,100530.25,29.0,-985.0,-10.0,-3.25,53.0625,-9.5625,5.9375,3.375,2.625,216.125,2.125,91.375,-0.1964111328125,-0.6883544921875,0.663818359375,0.216552734375,-7.0,-7.0,23.0,36.0,-979.0,-24.0,
218,4.173810243606567,0.029453277587890625,33.95207874627639,52.23045305759453,100530.25,33.0,-977.0,0.0,-2.875,53.5,-10.375,3.8125,6.375,3.0,216.125,2.0625,91.3125,-0.19720458984375,-0.68743896484375,0.66436767578125,0.217041015625,-2.0,2.0,23.0,35.0,-979.0,-22.0,
219,4.193863391876221,0.02005314826965332,49.86748148236217,52.21915440169484,100530.25,41.0,-978.0,-31.0,-2.875,53.5,-10.375,0.6875,8.625,-0.375,216.375,2.0,91.25,-0.19873046875,-0.6866455078125,0.66436767578125,0.21832275390625,3.0,-3.0,-4.0,35.0,-979.0,-21.0,
220,4.212913751602173,0.01905035972595215,52.49244709209917,52.22039020294064,100530.25,33.0,-975.0,-25.0,-2.875,53.5,-10.375,0.6875,8.125,-1.3125,216.4375,2.0625,91.1875,-0.1990966796875,-0.68646240234375,0.66424560546875,0.2188720703125,-2.0,4.0,-3.0,35.0,-979.0,-21.0,
221,4.233970880508423,0.02105712890625,47.48985507246377,52.19686347334111,100530.25,30.0,-971.0,-24.0,-3.25,53.875,-10.0,0.1875,7.375,-0.9375,216.625,2.0625,91.1875,-0.2000732421875,-0.6861572265625,0.663818359375,0.22027587890625,-1.0,-1.0,-16.0,35.0,-979.0,-21.0,
222,4.2540833950042725,0.02011251449584961,49.72028734678395,52.185154682370076,100530.25,31.0,-986.0,-26.0,-3.25,53.875,-10.0,1.5,5.4375,-1.8125,216.8125,2.125,91.1875,-0.2003173828125,-0.68585205078125,0.66375732421875,0.22125244140625,-1.0,-6.0,-3.0,36.0,-979.0,-20.0,
223,4.2771453857421875,0.02306199073791504,43.36139110297842,52.137577727277595,100530.25,30.0,-987.0,-19.0,-2.875,54.25,-8.25,3.75,4.5625,-3.625,216.9375,2.125,91.125,-0.2003173828125,-0.68560791015625,0.663818359375,0.2218017578125,-6.0,-7.0,0.0,37.0,-979.0,-19.0,
224,4.29404091835022,0.016895532608032227,59.18724335003175,52.165315668687505,100530.25,17.0,-1008.0,-41.0,-2.875,54.25,-8.25,5.5625,3.6875,-3.125,217.0625,2.25,91.0,-0.2001953125,-0.68463134765625,0.6644287109375,0.22308349609375,-25.0,-20.0,-19.0,38.0,-979.0,-17.0,
225,4.311410188674927,0.01736927032470703,57.572942403777525,52.18710123917755,100530.25,11.0,-993.0,-34.0,-2.875,54.25,-8.25,6.25,2.6875,0.375,217.125,2.1875,90.9375,-0.2003173828125,-0.68426513671875,0.6646728515625,0.2232666015625,-26.0,-13.0,-18.0,38.0,-979.0,-16.0,
226,4.348520517349243,0.037110328674316406,26.94667591807365,51.971699132689004,100535.25,49.0,-990.0,-28.0,-2.875,53.0625,-9.5625,5.1875,2.375,3.6875,217.0625,2.0625,90.75,-0.20123291015625,-0.6827392578125,0.6658935546875,0.22344970703125,13.0,-10.0,-15.0,36.0,-979.0,-13.0,
227,4.368798017501831,0.02027750015258789,49.31574368018813,51.95937168315309,100535.25,35.0,-988.0,-33.0,-3.6875,52.75,-10.375,4.625,3.9375,-3.1875,217.1875,2.125,90.625,-0.2012939453125,-0.68212890625,0.666259765625,0.2242431640625,-1.0,-8.0,-22.0,37.0,-979.0,-11.0,
228,4.400888204574585,0.032090187072753906,31.16217421022913,51.80772366882694,100535.25,22.0,-999.0,-45.0,-3.6875,52.75,-10.375,1.125,5.375,-3.6875,217.5,2.25,90.625,-0.20172119140625,-0.68194580078125,0.66571044921875,0.22613525390625,-16.0,-19.0,-34.0,38.0,-979.0,-10.0,
229,4.4165198802948,0.015631675720214844,63.9726679275212,51.85077984630614,100535.25,25.0,-984.0,-33.0,-3.6875,52.75,-10.0,-0.75,5.625,-3.0625,217.5,2.25,90.625,-0.20172119140625,-0.68194580078125,0.66571044921875,0.22613525390625,-18.0,-14.0,-28.0,39.0,-979.0,-11.0,
230,4.436779260635376,0.020259380340576172,49.359851248617225,51.83940567894344,100535.25,30.0,-983.0,-30.0,-3.6875,52.75,-10.0,-2.8125,5.8125,-0.0625,217.625,2.25,90.6875,-0.20245361328125,-0.68212890625,0.6650390625,0.22674560546875,-9.0,-3.0,-18.0,39.0,-979.0,-12.0,
231,4.466143846511841,0.029364585876464844,34.054626351856065,51.72247198898804,100535.25,50.0,-995.0,-16.0,-3.6875,52.75,-10.0,-0.8125,3.9375,-1.6875,217.75,2.25,90.75,-0.203369140625,-0.6822509765625,0.66436767578125,0.22747802734375,19.0,-12.0,-1.0,39.0,-979.0,-13.0,
232,4.485187530517578,0.019043684005737305,52.51084820031299,51.72581936016125,100535.25,38.0,-982.0,-21.0,-3.6875,52.75,-10.375,1.9375,3.1875,-6.0,217.9375,2.375,90.75,-0.203125,-0.68218994140625,0.66424560546875,0.228515625,-2.0,-2.0,-9.0,41.0,-979.0,-12.0,
233,4.503216028213501,0.01802849769592285,55.467738735998516,51.74080002829331,100535.25,30.0,-1000.0,-31.0,-3.6875,52.75,-10.375,2.25,2.75,-5.875,218.125,2.5,90.6875,-0.20263671875,-0.6820068359375,0.66412353515625,0.22955322265625,-14.0,-18.0,-17.0,43.0,-979.0,-12.0,
234,4.519268274307251,0.01605224609375,62.29657794676806,51.77829369642132,100535.25,27.0,-992.0,-26.0,-4.0625,53.0625,-10.75,0.3125,2.25,-3.375,218.25,2.5625,90.6875,-0.2025146484375,-0.68206787109375,0.6639404296875,0.230224609375,-16.0,-13.0,-14.0,44.0,-979.0,-12.0,
235,4.545470714569092,0.02620244026184082,38.16438430951493,51.699816093145344,100535.25,43.0,-992.0,-29.0,-4.0625,53.0625,-10.75,-0.9375,2.125,-0.5625,218.25,2.5625,90.6875,-0.202880859375,-0.68212890625,0.66357421875,0.2305908203125,8.0,-5.0,-6.0,44.0,-979.0,-12.0,
236,4.5656561851501465,0.020185470581054688,49.54058395540017,51.69026979464484,100535.25,54.0,-984.0,-12.0,-3.25,53.5,-10.375,-0.5,1.5,-1.75,218.375,2.5625,90.75,-0.2030029296875,-0.68218994140625,0.66339111328125,0.23089599609375,9.0,-4.0,0.0,44.0,-979.0,-12.0,
237,4.608771085739136,0.04311490058898926,23.193837544307858,51.42368661644884,100535.25,33.0,-997.0,-8.0,-3.25,53.5,-10.375,-0.25,0.9375,-5.3125,218.5625,2.75,90.75,-0.20208740234375,-0.68243408203125,0.6629638671875,0.23223876953125,-14.0,-18.0,4.0,48.0,-979.0,-12.0,
238,4.641290903091431,0.03251981735229492,30.75048021231983,51.278837066962346,100535.25,41.0,-994.0,-7.0,-4.375,53.5,-10.375,-1.3125,2.9375,-0.75,218.6875,2.8125,90.75,-0.20220947265625,-0.68255615234375,0.66253662109375,0.23291015625,-7.0,-14.0,9.0,49.0,-979.0,-13.0,
239,4.657516002655029,0.016225099563598633,61.63290376618224,51.314906886794894,100535.25,54.0,-991.0,-1.0,-4.375,53.5,-10.375,-0.0625,3.1875,-0.25,218.75,2.8125,90.75,-0.20257568359375,-0.68243408203125,0.66241455078125,0.2332763671875,5.0,-12.0,11.0,49.0,-979.0,-13.0,
240,4.68364405632019,0.026128053665161133,38.273038352389385,51.24215186167699,100535.25,38.0,-1006.0,-11.0,-3.6875,52.75,-10.75,1.4375,2.75,-4.1875,218.9375,2.9375,90.6875,-0.20233154296875,-0.6822509765625,0.66241455078125,0.2342529296875,-1.0,-24.0,11.0,49.0,-979.0,-12.0,
241,4.713720083236694,0.030076026916503906,33.24907251799473,51.127346500073976,100537.25,27.0,-1018.0,-29.0,-4.0625,53.875,-11.6875,0.0,4.5,-2.4375,219.125,3.0,90.6875,-0.2025146484375,-0.6820068359375,0.66204833984375,0.23553466796875,-24.0,-38.0,-17.0,52.0,-979.0,-12.0,
242,4.758854389190674,0.04513430595397949,22.15609565414908,50.85257505455138,100537.25,35.0,-993.0,-41.0,-4.0625,53.875,-11.6875,-2.3125,2.875,1.75,219.25,3.0,90.75,-0.20367431640625,-0.68212890625,0.66143798828125,0.236083984375,-16.0,-14.0,-28.0,51.0,-979.0,-13.0,
243,4.787930488586426,0.029076099395751953,34.39250865080276,50.752616517568235,100537.25,50.0,-988.0,-36.0,-4.375,53.0625,-10.75,-3.0,1.0,2.1875,219.25,2.875,90.875,-0.2047119140625,-0.6824951171875,0.66082763671875,0.23565673828125,0.0,-9.0,-21.0,50.0,-979.0,-15.0,
244,4.805943489074707,0.01801300048828125,55.515459551037694,50.77046797464062,100537.25,33.0,-984.0,-20.0,-4.375,53.0625,-10.75,-1.5,0.3125,-0.4375,219.1875,2.875,90.875,-0.204833984375,-0.6827392578125,0.66064453125,0.23553466796875,-16.0,-4.0,-4.0,49.0,-979.0,-15.0,
245,4.8229498863220215,0.017006397247314453,58.80140193466985,50.798786173338584,100537.25,33.0,-984.0,-20.0,-4.0625,53.0625,-11.1875,-2.0,0.6875,-0.9375,219.25,2.875,90.9375,-0.20489501953125,-0.682861328125,0.66046142578125,0.23553466796875,-16.0,-5.0,-4.0,50.0,-979.0,-16.0,
246,4.839213609695435,0.016263723373413086,61.486535219526495,50.83470576854376,100537.25,36.0,-998.0,-18.0,-4.0625,53.0625,-11.1875,-2.75,0.25,1.25,219.1875,2.875,91.0,-0.20513916015625,-0.68316650390625,0.66015625,0.23529052734375,-13.0,-19.0,0.0,49.0,-979.0,-17.0,
247,4.855771780014038,0.016558170318603516,60.39314614830813,50.86730002769733,100537.25,39.0,-996.0,-6.0,-4.0625,53.0625,-11.1875,-4.1875,-0.125,3.375,219.125,2.8125,91.0625,-0.2056884765625,-0.6834716796875,0.65985107421875,0.23480224609375,-8.0,-17.0,12.0,48.0,-979.0,-18.0,
248,4.874819993972778,0.019048213958740234,52.49836032743385,50.873673347247056,100537.25,49.0,-995.0,-4.0,-3.6875,53.5,-10.0,-4.5,0.4375,3.625,219.125,2.75,91.0625,-0.20599365234375,-0.68365478515625,0.65972900390625,0.2344970703125,-1.0,-17.0,16.0,47.0,-979.0,-19.0,
249,4.88897442817688,0.014154434204101562,70.6492386470826,50.930927060065066,100537.25,46.0,-994.0,-14.0,-3.6875,53.5,-10.0,-3.8125,1.5,2.5,219.0625,2.6875,91.1875,-0.2066650390625,-0.68389892578125,0.65936279296875,0.23419189453125,0.0,-14.0,6.0,46.0,-979.0,-20.0,
250,4.907024621963501,0.018050193786621094,55.4010672584139,50.947370200878424,100537.25,40.0,-984.0,-8.0,-3.6875,53.5,-10.0,-2.8125,1.25,2.0625,219.0625,2.6875,91.1875,-0.2071533203125,-0.68408203125,0.6590576171875,0.2340087890625,-5.0,-4.0,12.0,46.0,-979.0,-21.0,
251,4.935258388519287,0.028233766555786133,35.41858285270349,50.85853267255312,100537.25,41.0,-969.0,-14.0,-4.75,53.5,-10.0,-1.625,0.75,3.5625,219.0,2.5625,91.25,-0.2080078125,-0.68414306640625,0.65887451171875,0.2335205078125,-3.0,10.0,7.0,44.0,-979.0,-22.0,
252,4.9919257164001465,0.056667327880859375,17.646852911477616,50.48152042248859,100537.25,41.0,-981.0,-7.0,-4.0625,54.25,-10.0,-1.4375,0.6875,0.375,218.9375,2.5,91.3125,-0.20867919921875,-0.68414306640625,0.65887451171875,0.2330322265625,-1.0,-2.0,15.0,43.0,-979.0,-22.0,
253,5.018996715545654,0.027070999145507812,36.939899950679916,50.408480885505895,100537.25,44.0,-985.0,-2.0,-4.0625,53.0625,-10.375,-1.875,1.6875,1.6875,218.9375,2.4375,91.3125,-0.209228515625,-0.68414306640625,0.65869140625,0.23309326171875,1.0,-6.0,20.0,42.0,-979.0,-23.0,
254,5.036777019500732,0.017780303955078125,56.24200815275692,50.429073793935316,100537.25,48.0,-977.0,-7.0,-4.0625,53.0625,-10.375,-0.9375,1.25,2.625,218.9375,2.375,91.3125,-0.209716796875,-0.68402099609375,0.65869140625,0.23297119140625,6.0,2.0,15.0,41.0,-979.0,-23.0,
255,5.0708935260772705,0.034116506576538086,29.311324644466964,50.28699551443003,100537.25,48.0,-982.0,-7.0,-3.6875,54.25,-9.5625,0.5,1.625,2.0,218.9375,2.375,91.3125,-0.21026611328125,-0.6837158203125,0.65887451171875,0.23291015625,8.0,-2.0,15.0,40.0,-979.0,-22.0,
256,5.101868629455566,0.0309751033782959,32.283992333684836,50.17769342824463,100534.25,46.0,-982.0,-12.0,-3.6875,54.25,-9.5625,0.9375,1.75,0.8125,218.9375,2.3125,91.25,-0.2105712890625,-0.68328857421875,0.65911865234375,0.233154296875,1.0,-4.0,12.0,40.0,-979.0,-21.0,
257,5.131951332092285,0.03008270263671875,33.24169414151661,50.0784172275503,100534.25,53.0,-983.0,-10.0,-3.6875,53.0625,-10.0,0.6875,2.0625,0.4375,219.0,2.3125,91.1875,-0.21112060546875,-0.682861328125,0.6591796875,0.23370361328125,13.0,-4.0,10.0,40.0,-979.0,-21.0,
258,5.159053564071655,0.027102231979370117,36.89733010776336,50.009172573191876,100534.25,49.0,-984.0,-1.0,-3.6875,53.0625,-10.0,1.625,3.0,-0.6875,219.0625,2.3125,91.1875,-0.21124267578125,-0.68255615234375,0.6593017578125,0.23419189453125,9.0,-4.0,19.0,40.0,-979.0,-20.0,
259,5.17810583114624,0.01905226707458496,52.48719200110123,50.018290171305175,100534.25,45.0,-987.0,-4.0,-3.25,53.0625,-9.5625,2.6875,2.9375,-0.9375,219.1875,2.375,91.125,-0.21142578125,-0.68212890625,0.659423828125,0.23480224609375,4.0,-7.0,14.0,40.0,-979.0,-19.0,
260,5.197419881820679,0.019314050674438477,51.77577799997531,50.02482114431764,100534.25,45.0,-999.0,-16.0,-3.25,53.0625,-9.5625,2.0,3.1875,-0.5,219.25,2.375,91.0625,-0.21160888671875,-0.6817626953125,0.65960693359375,0.23529052734375,4.0,-20.0,2.0,40.0,-979.0,-18.0,
261,5.212436199188232,0.015016317367553711,66.59422383817855,50.07255533231223,100534.25,46.0,-994.0,-14.0,-3.25,53.0625,-9.5625,1.6875,3.8125,0.3125,219.25,2.375,91.0625,-0.21173095703125,-0.68157958984375,0.65960693359375,0.23553466796875,5.0,-15.0,3.0,40.0,-979.0,-18.0,
262,5.2274205684661865,0.014984369277954102,66.73620900889433,50.120321594264844,100534.25,47.0,-998.0,-9.0,-4.0625,52.0,-10.375,1.25,4.0625,0.5625,219.375,2.375,91.0,-0.21221923828125,-0.6812744140625,0.65960693359375,0.23602294921875,6.0,-18.0,8.0,40.0,-979.0,-17.0,
263,5.24596381187439,0.018543243408203125,53.927998354248096,50.13378083255015,100534.25,44.0,-998.0,-21.0,-4.0625,52.0,-10.375,1.875,3.8125,-0.25,219.4375,2.375,91.0,-0.21258544921875,-0.68096923828125,0.65966796875,0.236572265625,3.0,-18.0,-3.0,40.0,-979.0,-17.0,
264,5.262979507446289,0.017015695571899414,58.76926957082207,50.1617001598584,100534.25,41.0,-994.0,-35.0,-2.5625,53.875,-11.1875,3.3125,3.8125,0.1875,219.5,2.375,90.9375,-0.212890625,-0.68072509765625,0.65972900390625,0.23712158203125,0.0,-17.0,-10.0,40.0,-979.0,-16.0,
265,5.278902769088745,0.015923261642456055,62.801203827092095,50.19982590922864,100534.25,37.0,-997.0,-53.0,-2.5625,53.875,-11.1875,3.8125,3.0,1.0,219.5,2.375,90.875,-0.21307373046875,-0.68023681640625,0.65997314453125,0.2373046875,-3.0,-17.0,-37.0,40.0,-979.0,-15.0,
266,5.294901371002197,0.01599860191345215,62.50546175282774,50.237007521379496,100534.25,38.0,-987.0,-52.0,-2.5625,53.875,-11.1875,3.8125,1.25,1.1875,219.5,2.3125,90.8125,-0.21319580078125,-0.6796875,0.660400390625,0.23748779296875,-2.0,-7.0,-38.0,40.0,-979.0,-14.0,
267,5.313896417617798,0.018995046615600586,52.645303811926546,50.245616213892106,100534.25,47.0,-994.0,-42.0,-3.25,53.5,-10.375,2.25,0.125,1.4375,219.5,2.3125,90.75,-0.2132568359375,-0.6793212890625,0.66082763671875,0.23736572265625,7.0,-14.0,-28.0,39.0,-979.0,-13.0,
268,5.343490362167358,0.029593944549560547,33.790696550279556,50.154483649390784,100534.25,42.0,-991.0,-35.0,-3.25,53.5,-10.375,-0.5,-0.375,-0.0625,219.5,2.3125,90.8125,-0.21331787109375,-0.6795654296875,0.66058349609375,0.2373046875,2.0,-11.0,-21.0,39.0,-979.0,-14.0,
269,5.380089282989502,0.036598920822143555,27.323210016481333,49.99917024620963,100534.25,40.0,-991.0,-23.0,-3.25,52.75,-9.1875,-2.6875,0.5,-0.5,219.5,2.3125,90.875,-0.21343994140625,-0.68011474609375,0.6600341796875,0.23724365234375,0.0,-12.0,-7.0,40.0,-979.0,-15.0,
270,5.412178993225098,0.0320897102355957,31.162637264662614,49.88748530637712,100534.25,37.0,-998.0,-11.0,-3.25,53.5,-10.375,-1.125,-0.5,0.875,219.5,2.3125,90.9375,-0.213623046875,-0.68035888671875,0.6597900390625,0.237060546875,-1.0,-22.0,1.0,40.0,-979.0,-16.0,
271,5.439791917800903,0.027612924575805664,36.21492527003808,49.81808203236472,100534.25,39.0,-990.0,-27.0,-3.25,53.5,-10.375,-0.25,-1.125,1.8125,219.4375,2.25,90.9375,-0.21368408203125,-0.68035888671875,0.65985107421875,0.23675537109375,0.0,-10.0,-10.0,39.0,-979.0,-16.0,
272,5.472072124481201,0.03228020668029785,30.978735976010576,49.70694716963145,100536.5,49.0,-989.0,-15.0,-3.6875,53.0625,-11.1875,-1.4375,-0.375,2.3125,219.375,2.1875,91.0,-0.2139892578125,-0.680419921875,0.65985107421875,0.23626708984375,11.0,-10.0,1.0,38.0,-979.0,-17.0,
273,5.500204086303711,0.028131961822509766,35.546756614743124,49.634521867981,100536.5,35.0,-994.0,-14.0,-3.6875,53.0625,-11.1875,-2.1875,0.3125,-0.4375,219.375,2.1875,91.0625,-0.21429443359375,-0.68084716796875,0.6595458984375,0.2359619140625,-2.0,-14.0,3.0,37.0,-979.0,-18.0,
274,5.545326471328735,0.045122385025024414,22.161949095674135,49.41097722860416,100536.5,36.0,-987.0,-22.0,-2.5625,55.0,-10.0,-1.1875,-0.5625,3.3125,219.3125,2.125,91.125,-0.21484375,-0.68109130859375,0.6591796875,0.2354736328125,4.0,-8.0,5.0,36.0,-979.0,-19.0,
275,5.568392753601074,0.023066282272338867,43.35332361726979,49.38588425217632,100536.5,46.0,-980.0,-10.0,-2.5625,55.0,-10.0,-1.1875,-0.6875,3.25,219.25,2.0625,91.125,-0.21502685546875,-0.68109130859375,0.6591796875,0.2352294921875,10.0,0.0,8.0,36.0,-979.0,-19.0,
276,5.586438894271851,0.018046140670776367,55.41351019275739,49.40535558045775,100536.5,46.0,-978.0,-8.0,-2.1875,52.375,-10.0,-0.25,-0.9375,0.5,219.1875,2.0625,91.125,-0.21502685546875,-0.68109130859375,0.6593017578125,0.23486328125,9.0,-2.0,8.0,35.0,-979.0,-19.0,
277,5.60548996925354,0.019051074981689453,52.490476309663855,49.415840813088984,100536.5,38.0,-982.0,-11.0,-2.1875,52.375,-10.0,-0.625,-0.1875,-1.1875,219.1875,2.0625,91.125,-0.2149658203125,-0.68115234375,0.65924072265625,0.2349853515625,-5.0,-11.0,8.0,36.0,-979.0,-19.0,
278,5.623537302017212,0.018047332763671875,55.40984992601987,49.435077082227046,100536.5,24.0,-985.0,-9.0,-3.25,53.5,-9.1875,-1.3125,0.3125,-1.0625,219.1875,2.0625,91.125,-0.21490478515625,-0.68121337890625,0.6591796875,0.23504638671875,-11.0,-5.0,10.0,36.0,-979.0,-20.0,
279,5.638593912124634,0.015056610107421875,66.41601216113504,49.48042089004991,100536.5,25.0,-985.0,-9.0,-3.25,53.5,-9.1875,-2.0625,0.875,1.125,219.25,2.0625,91.1875,-0.21514892578125,-0.68133544921875,0.658935546875,0.2349853515625,-3.0,-9.0,2.0,35.0,-979.0,-20.0,
280,5.6534423828125,0.014848470687866211,67.34700300261726,49.52734653337076,100536.5,38.0,-986.0,-4.0,-3.25,53.5,-9.1875,-1.4375,0.5625,1.9375,219.1875,2.0625,91.1875,-0.21539306640625,-0.68145751953125,0.65887451171875,0.2347412109375,7.0,-10.0,15.0,35.0,-979.0,-20.0,
281,5.6684722900390625,0.0150299072265625,66.53401015228427,49.572439560794535,100536.5,42.0,-990.0,-5.0,-3.25,53.5,-9.1875,-1.4375,0.5625,1.9375,219.1875,2.0625,91.1875,-0.21539306640625,-0.68145751953125,0.65887451171875,0.2347412109375,7.0,-10.0,15.0,35.0,-979.0,-21.0,
282,5.684512138366699,0.01603984832763672,62.34472917533741,49.608478816798794,100536.5,41.0,-978.0,-14.0,-3.25,53.0625,-10.0,1.0625,0.375,1.0,219.1875,2.0,91.1875,-0.21563720703125,-0.6812744140625,0.6590576171875,0.234619140625,3.0,0.0,-1.0,34.0,-979.0,-20.0,
283,5.703557252883911,0.019045114517211914,52.50690401972935,49.618157134638324,100536.5,39.0,-977.0,-21.0,-3.25,53.0625,-10.0,1.0,0.625,-0.0625,219.1875,2.0,91.1875,-0.21563720703125,-0.68109130859375,0.6591796875,0.23468017578125,6.0,5.0,4.0,34.0,-979.0,-20.0,
284,5.723609447479248,0.020052194595336914,49.8698531597408,49.61903893094545,100536.5,36.0,-982.0,-15.0,-2.5625,53.0625,-9.5625,-0.5,1.25,-1.3125,219.1875,2.0,91.1875,-0.21563720703125,-0.68109130859375,0.6591796875,0.23480224609375,4.0,-3.0,6.0,34.0,-979.0,-20.0,
285,5.741661071777344,0.018051624298095703,55.39667696859233,49.637203665833525,100536.5,39.0,-983.0,-13.0,-2.5625,53.0625,-9.5625,-1.3125,2.0,-1.625,219.25,2.0,91.1875,-0.21563720703125,-0.68115234375,0.65899658203125,0.2349853515625,4.0,-6.0,-6.0,35.0,-979.0,-20.0,
286,5.761719703674316,0.020058631896972656,49.853848713925736,49.637957885666395,100536.5,36.0,-995.0,-12.0,-2.5625,53.0625,-9.5625,-2.0625,2.1875,-2.1875,219.3125,2.0625,91.1875,-0.21575927734375,-0.68133544921875,0.65863037109375,0.23541259765625,0.0,-15.0,8.0,35.0,-979.0,-21.0,
287,5.77976655960083,0.018046855926513672,55.41131397468756,49.65598472541444,100536.5,30.0,-1002.0,-10.0,-2.5625,52.0,-10.0,-2.0,1.625,-2.5,219.375,2.0625,91.25,-0.2156982421875,-0.68145751953125,0.658447265625,0.235595703125,-5.0,-23.0,10.0,36.0,-979.0,-21.0,
288,5.800853252410889,0.021086692810058594,47.42327348378635,49.64786859248758,100536.5,20.0,-997.0,-24.0,-2.5625,52.0,-10.0,0.375,2.0625,-1.625,219.4375,2.125,91.25,-0.2156982421875,-0.6815185546875,0.65814208984375,0.23626708984375,-16.0,-8.0,-5.0,37.0,-979.0,-21.0,
289,5.81887149810791,0.018018245697021484,55.49929870061132,49.665987656536586,100536.5,22.0,-986.0,-29.0,-2.5625,52.0,-10.0,0.5,2.75,-0.6875,219.5,2.125,91.25,-0.2158203125,-0.6815185546875,0.6580810546875,0.23638916015625,-14.0,-6.0,-7.0,37.0,-979.0,-21.0,
290,5.835916042327881,0.017044544219970703,58.66979997202406,49.692284449712936,100533.25,19.0,-965.0,-28.0,-3.25,52.75,-10.0,1.75,-0.375,-0.3125,219.5,2.125,91.1875,-0.21600341796875,-0.68121337890625,0.65826416015625,0.236572265625,-21.0,15.0,-6.0,37.0,-979.0,-21.0,
291,5.853989601135254,0.018073558807373047,55.32944621797747,49.709688576072445,100533.25,10.0,-965.0,-10.0,-3.25,52.75,-10.0,0.8125,-0.5625,-0.9375,219.5,2.125,91.1875,-0.21600341796875,-0.68115234375,0.6583251953125,0.2366943359375,-17.0,0.0,27.0,37.0,-979.0,-20.0,
292,5.8740410804748535,0.02005147933959961,49.87163206582483,49.7102413823083,100533.25,14.0,-996.0,3.0,-2.875,52.375,-8.75,-1.9375,2.3125,-3.1875,219.5625,2.1875,91.1875,-0.2159423828125,-0.6812744140625,0.6580810546875,0.2369384765625,-23.0,-16.0,24.0,37.0,-979.0,-21.0,
293,5.895097732543945,0.021056652069091797,47.490930501143595,49.70231424366226,100533.25,3.0,-1013.0,0.0,-2.875,52.375,-8.75,-4.8125,6.4375,-7.0625,219.9375,2.375,91.3125,-0.2161865234375,-0.6820068359375,0.656494140625,0.2388916015625,-59.0,-46.0,15.0,41.0,-979.0,-23.0,
294,5.913145065307617,0.018047332763671875,55.40984992601987,49.71973404219288,100533.25,-15.0,-1014.0,-19.0,-2.875,52.375,-8.75,-6.8125,10.375,-6.4375,220.125,2.4375,91.375,-0.216552734375,-0.68231201171875,0.65582275390625,0.23974609375,-58.0,-35.0,4.0,42.0,-979.0,-24.0,
295,5.9342041015625,0.021059036254882812,47.48555384476044,49.71180548412976,100533.25,-4.0,-1031.0,-20.0,-3.25,53.875,-9.1875,-8.6875,11.25,0.5,220.4375,2.4375,91.625,-0.21893310546875,-0.6829833984375,0.65374755859375,0.24114990234375,-18.0,-46.0,10.0,42.0,-979.0,-28.0,
296,5.952763080596924,0.018558979034423828,53.88227435060764,49.72480778964885,100533.25,29.0,-1022.0,-14.0,-3.25,53.875,-9.1875,-6.5625,9.0,6.125,220.5,2.3125,91.6875,-0.220947265625,-0.68292236328125,0.65313720703125,0.2412109375,-3.0,-34.0,8.0,40.0,-979.0,-29.0,
297,5.971377372741699,0.01861429214477539,53.72216102671824,49.73726854975762,100533.25,45.0,-1005.0,-34.0,-3.25,53.0625,-9.1875,-3.9375,8.75,6.375,220.5625,2.25,91.75,-0.221923828125,-0.682861328125,0.65289306640625,0.24127197265625,6.0,-25.0,-3.0,39.0,-979.0,-30.0,
298,5.9894187450408936,0.018041372299194336,55.42815609678741,49.75441068413148,100533.25,43.0,-996.0,-39.0,-3.25,53.0625,-9.1875,-3.625,8.875,5.375,220.625,2.125,91.8125,-0.22357177734375,-0.6827392578125,0.65234375,0.24151611328125,5.0,-18.0,-19.0,37.0,-979.0,-31.0,
299,6.006464004516602,0.017045259475708008,58.66733806106892,49.779703961459674,100533.25,44.0,-999.0,-48.0,-3.25,53.0625,-9.1875,-3.3125,6.5,5.0,220.625,2.125,91.8125,-0.2249755859375,-0.6826171875,0.6519775390625,0.24151611328125,10.0,-6.0,-10.0,35.0,-979.0,-32.0,
300,6.023509740829468,0.01704573631286621,58.66569690188125,49.80485014683291,100533.25,48.0,-988.0,-48.0,-4.0625,53.0625,-9.1875,-2.9375,5.625,6.625,220.625,2.0,91.875,-0.2257080078125,-0.68255615234375,0.65185546875,0.24139404296875,13.0,-8.0,-15.0,34.0,-979.0,-32.0,
301,6.042085886001587,0.01857614517211914,53.83248196729728,49.81723293562612,100533.25,56.0,-986.0,-55.0,-4.0625,53.0625,-9.1875,-3.0625,4.75,7.5625,220.625,1.9375,91.9375,-0.2264404296875,-0.6824951171875,0.65167236328125,0.2412109375,20.0,-11.0,-15.0,33.0,-979.0,-33.0,
302,6.060140371322632,0.018054485321044922,55.387898476084835,49.83382916823232,100533.25,71.0,-968.0,-32.0,-4.0625,53.0625,-9.1875,-2.75,1.5625,9.0,220.5,1.75,92.0625,-0.22833251953125,-0.68255615234375,0.65130615234375,0.2403564453125,41.0,11.0,2.0,30.0,-979.0,-35.0,
303,6.077185153961182,0.017044782638549805,58.66897931208124,49.85860926131253,100533.25,79.0,-966.0,-24.0,-2.5625,52.75,-9.1875,-2.375,1.1875,8.125,220.4375,1.6875,92.0625,-0.2286376953125,-0.68255615234375,0.6512451171875,0.24017333984375,50.0,13.0,10.0,29.0,-979.0,-35.0,
304,6.093228340148926,0.01604318618774414,62.331758062119185,49.891450480677356,100533.25,72.0,-956.0,-29.0,-2.5625,52.75,-9.1875,-0.8125,1.4375,4.0,220.4375,1.6875,92.0625,-0.22894287109375,-0.68255615234375,0.65118408203125,0.2401123046875,44.0,16.0,9.0,29.0,-979.0,-35.0,
305,6.110273599624634,0.017045259475708008,58.66733806106892,49.91593175446951,100533.25,59.0,-945.0,-21.0,-2.5625,52.75,-9.1875,0.375,2.125,0.5625,220.5625,1.6875,92.0625,-0.22894287109375,-0.68243408203125,0.65106201171875,0.24072265625,29.0,33.0,13.0,29.0,-979.0,-35.0,
306,6.127318620681763,0.017045021057128906,58.668158675096514,49.94027876519217,100533.25,55.0,-950.0,-21.0,-2.1875,53.0625,-8.75,0.6875,3.0625,0.25,220.625,1.75,92.0625,-0.22894287109375,-0.682373046875,0.65106201171875,0.24102783203125,24.0,28.0,13.0,30.0,-979.0,-35.0,
307,6.143405199050903,0.016086578369140625,62.16362342897795,49.972285736162824,100533.25,52.0,-953.0,-39.0,-2.1875,53.0625,-8.75,0.8125,2.75,0.3125,220.6875,1.75,92.0,-0.22906494140625,-0.68218994140625,0.6510009765625,0.2415771484375,22.0,22.0,10.0,30.0,-979.0,-35.0,
308,6.161980390548706,0.018575191497802734,53.83524579643178,49.98393056758389,100533.25,56.0,-943.0,-30.0,-2.1875,53.0625,-8.75,0.625,3.5625,1.0,220.75,1.75,92.0,-0.2293701171875,-0.68194580078125,0.65093994140625,0.2420654296875,25.0,35.0,4.0,30.0,-979.0,-34.0,
309,6.179025650024414,0.017045259475708008,58.66733806106892,50.00788433347564,100533.25,64.0,-934.0,-32.0,-2.1875,53.0625,-8.0,0.375,4.0,-0.0625,220.875,1.8125,92.0,-0.2296142578125,-0.68182373046875,0.6507568359375,0.24273681640625,32.0,45.0,2.0,31.0,-979.0,-34.0,
310,6.1970741748809814,0.018048524856567383,55.40619014279864,50.02360650394405,100533.25,60.0,-936.0,-42.0,-2.1875,53.0625,-8.0,0.4375,4.75,-2.125,221.0,1.875,92.0,-0.2296142578125,-0.68182373046875,0.6505126953125,0.24322509765625,28.0,43.0,-7.0,32.0,-979.0,-34.0,
311,6.21712851524353,0.020054340362548828,49.86451720284376,50.02309333601058,100534.75,48.0,-934.0,-34.0,-2.1875,53.0625,-8.0,-0.1875,4.8125,-9.375,221.25,2.0625,92.0,-0.22900390625,-0.6820068359375,0.64990234375,0.244873046875,12.0,45.0,0.0,35.0,-979.0,-34.0,
312,6.236178159713745,0.019049644470214844,52.49441802252816,50.030642487982014,100534.75,40.0,-945.0,-38.0,-1.75,53.0625,-9.1875,-0.875,5.25,-10.1875,221.5625,2.25,92.0,-0.22845458984375,-0.68231201171875,0.649169921875,0.24658203125,-4.0,44.0,6.0,39.0,-979.0,-34.0,
313,6.252745866775513,0.016567707061767578,60.35838250107929,50.05800758082167,100534.75,43.0,-964.0,-35.0,-1.75,53.0625,-9.1875,-1.4375,4.6875,-8.875,221.875,2.4375,92.0,-0.2279052734375,-0.6826171875,0.64849853515625,0.2481689453125,0.0,33.0,-3.0,40.0,-979.0,-34.0,
314,6.270304203033447,0.01755833625793457,56.95300427727612,50.07731520395663,100534.75,47.0,-1004.0,-14.0,-1.75,52.375,-7.875,-1.3125,3.875,-9.8125,222.125,2.625,92.0625,-0.227294921875,-0.68292236328125,0.64776611328125,0.24957275390625,2.0,-25.0,21.0,45.0,-978.0,-35.0,
315,6.290354251861572,0.020050048828125,49.8751902587519,50.076670945325326,100534.75,41.0,-1017.0,-20.0,-1.75,52.375,-7.875,-1.0,3.0,-10.5,222.375,2.8125,92.0625,-0.2269287109375,-0.68310546875,0.6474609375,0.25103759765625,-3.0,-27.0,21.0,47.0,-978.0,-35.0,
316,6.306397199630737,0.01604294776916504,62.332684391208076,50.107849219916396,100534.75,35.0,-1033.0,-4.0,-1.75,52.375,-7.875,-0.75,2.5,-10.1875,222.5,2.9375,92.0625,-0.22607421875,-0.68353271484375,0.64678955078125,0.25177001953125,-14.0,-54.0,31.0,50.0,-978.0,-35.0,
317,6.321437120437622,0.015039920806884766,66.48971180368409,50.14682483752281,100534.75,29.0,-1034.0,2.0,-2.875,53.0625,-9.5625,-1.375,4.0,-8.5625,222.75,3.125,92.0625,-0.2254638671875,-0.683837890625,0.6461181640625,0.25311279296875,-24.0,-55.0,39.0,53.0,-978.0,-36.0,
318,6.335474252700806,0.014037132263183594,71.2396222569468,50.19355889015522,100534.75,32.0,-1037.0,-21.0,-2.875,53.0625,-9.5625,-1.6875,5.25,-7.0,222.875,3.1875,92.125,-0.225341796875,-0.6839599609375,0.64581298828125,0.2537841796875,-24.0,-58.0,40.0,54.0,-978.0,-36.0,
319,6.353040456771851,0.017566204071044922,56.92749531746247,50.212178274415145,100534.75,30.0,-1028.0,-17.0,-2.875,53.0625,-9.5625,-2.125,5.9375,-4.1875,223.0625,3.25,92.125,-0.22552490234375,-0.68408203125,0.6451416015625,0.2548828125,-26.0,-50.0,19.0,56.0,-978.0,-36.0,
320,6.367594003677368,0.014553546905517578,68.71177222240425,50.25446028989848,100534.75,30.0,-1013.0,-25.0,-3.25,53.0625,-8.25,-2.0625,5.6875,-1.875,223.25,3.3125,92.125,-0.22613525390625,-0.6839599609375,0.644775390625,0.255615234375,-26.0,-35.0,11.0,56.0,-978.0,-37.0,
321,6.384635925292969,0.017041921615600586,58.678828746904685,50.27694668200997,100534.75,33.0,-1006.0,-33.0,-3.25,53.0625,-8.25,-1.9375,5.625,-0.6875,223.25,3.3125,92.125,-0.22650146484375,-0.68389892578125,0.64459228515625,0.255859375,-22.0,-27.0,3.0,56.0,-978.0,-37.0,
322,6.401683568954468,0.017047643661499023,58.659133183223084,50.299268392703375,100534.75,37.0,-993.0,-44.0,-3.25,53.0625,-8.25,-0.0625,4.375,0.75,223.375,3.25,92.1875,-0.2271728515625,-0.6837158203125,0.6444091796875,0.25628662109375,-18.0,-14.0,-6.0,56.0,-978.0,-37.0,
323,6.416749715805054,0.015066146850585938,66.37397138878339,50.33701083968116,100534.75,44.0,-986.0,-41.0,-3.25,54.5625,-8.25,0.625,3.4375,0.625,223.375,3.25,92.125,-0.22735595703125,-0.68359375,0.6444091796875,0.2564697265625,-11.0,-11.0,-1.0,56.0,-978.0,-37.0,
324,6.4327473640441895,0.015997648239135742,62.50918791636239,50.367281919230415,100534.75,46.0,-986.0,-37.0,-3.25,54.5625,-8.25,2.25,2.5,-0.25,223.4375,3.25,92.125,-0.2275390625,-0.6832275390625,0.64453125,0.2568359375,-9.0,-7.0,-1.0,56.0,-978.0,-36.0,
325,6.447473049163818,0.014725685119628906,67.90855514539214,50.407345253215084,100534.75,47.0,-992.0,-41.0,-3.25,54.5625,-8.25,3.125,2.0,-0.3125,223.4375,3.25,92.0625,-0.2276611328125,-0.682861328125,0.644775390625,0.25714111328125,-9.0,-10.0,-11.0,56.0,-978.0,-36.0,
326,6.463997840881348,0.016524791717529297,60.515134901168665,50.433185162628526,100534.75,50.0,-988.0,-36.0,-3.25,54.5625,-8.25,2.5,2.3125,-0.3125,223.5,3.25,92.0,-0.227783203125,-0.68267822265625,0.6448974609375,0.25732421875,-6.0,-10.0,-1.0,56.0,-978.0,-35.0,
327,6.484764575958252,0.020766735076904297,48.153934467635644,50.425886116564115,100534.75,49.0,-998.0,-43.0,-3.6875,53.0625,-9.1875,2.8125,1.9375,-0.375,223.5,3.25,92.0,-0.2279052734375,-0.6822509765625,0.6451416015625,0.2576904296875,-7.0,-20.0,-9.0,56.0,-978.0,-34.0,
328,6.500818967819214,0.016054391860961914,62.28825162986174,50.455181358485355,100534.75,52.0,-998.0,-45.0,-3.6875,53.0625,-9.1875,1.625,2.0625,0.125,223.5625,3.25,91.9375,-0.22802734375,-0.68194580078125,0.645263671875,0.2579345703125,-3.0,-20.0,-12.0,56.0,-978.0,-33.0,
329,6.519530773162842,0.01871180534362793,53.4421976733815,50.46375443985996,100534.75,61.0,-994.0,-32.0,-3.6875,53.875,-9.5625,0.75,2.4375,0.3125,223.5625,3.25,91.9375,-0.228271484375,-0.6817626953125,0.645263671875,0.25823974609375,5.0,-16.0,1.0,56.0,-978.0,-33.0,
330,6.541115999221802,0.02158522605895996,46.327983652730985,50.450106685045824,100534.75,60.0,-985.0,-47.0,-3.6875,53.875,-9.5625,0.9375,3.75,-0.4375,223.6875,3.25,91.875,-0.2286376953125,-0.6815185546875,0.645263671875,0.2586669921875,3.0,-7.0,-14.0,56.0,-978.0,-32.0,
331,6.5606935024261475,0.019577503204345703,51.079036461504735,50.451983449249084,100534.75,60.0,-987.0,-43.0,-3.6875,53.875,-9.5625,0.6875,2.25,-0.3125,223.75,3.25,91.875,-0.22882080078125,-0.681396484375,0.64520263671875,0.259033203125,3.0,-8.0,-10.0,56.0,-978.0,-32.0,
332,6.5777411460876465,0.017047643661499023,58.659133183223084,50.4732540588754,100534.75,60.0,-986.0,-49.0,-4.0625,52.75,-8.25,-0.125,2.6875,0.5,223.75,3.3125,91.875,-0.2291259765625,-0.68133544921875,0.64501953125,0.25933837890625,4.0,-7.0,-17.0,56.0,-978.0,-32.0,
333,6.596791505813599,0.01905035972595215,52.49244709209917,50.47908512896532,100533.25,67.0,-972.0,-57.0,-4.0625,52.75,-8.25,0.1875,1.0625,-0.375,223.8125,3.3125,91.875,-0.22930908203125,-0.681396484375,0.64483642578125,0.259521484375,10.0,6.0,-24.0,56.0,-978.0,-33.0,
334,6.61483907699585,0.018047571182250977,55.409117930697384,50.492535965317416,100533.25,69.0,-983.0,-58.0,-3.6875,52.375,-8.25,0.375,-0.1875,-1.6875,223.875,3.3125,91.9375,-0.2291259765625,-0.68157958984375,0.64459228515625,0.2596435546875,11.0,-5.0,-24.0,57.0,-978.0,-33.0,
335,6.629878282546997,0.015039205551147461,66.49287401512389,50.52883110718334,100533.25,67.0,-989.0,-65.0,-3.6875,52.375,-8.25,-0.125,-0.25,-2.8125,223.875,3.375,91.9375,-0.22894287109375,-0.6817626953125,0.6444091796875,0.25982666015625,9.0,-11.0,-31.0,58.0,-978.0,-33.0,
336,6.64592432975769,0.01604604721069336,62.32064426020029,50.55730148709811,100533.25,59.0,-1001.0,-66.0,-3.6875,52.375,-8.25,-2.8125,-0.3125,-3.75,223.9375,3.375,92.0,-0.22869873046875,-0.6820068359375,0.6441650390625,0.25994873046875,6.0,-13.0,-37.0,58.0,-978.0,-34.0,
337,6.661566734313965,0.015642404556274414,63.928790257434194,50.588699842050836,100533.25,58.0,-1000.0,-68.0,-3.6875,52.375,-8.25,-4.625,-0.9375,-3.625,224.0,3.5,92.0625,-0.22845458984375,-0.682861328125,0.64337158203125,0.26007080078125,-1.0,-22.0,-32.0,60.0,-978.0,-36.0,
338,6.677608966827393,0.016042232513427734,62.33546354367922,50.61692016994335,100533.25,58.0,-1007.0,-53.0,-3.25,52.75,-8.25,-9.5625,-1.125,-2.1875,224.0,3.5,92.25,-0.22845458984375,-0.68402099609375,0.6422119140625,0.2598876953125,-2.0,-29.0,-14.0,60.0,-977.0,-39.0,
339,6.692648887634277,0.015039920806884766,66.48971180368409,50.6525899821752,100533.25,62.0,-1009.0,-52.0,-3.25,52.75,-8.25,-10.9375,-0.5,-2.1875,224.0625,3.5625,92.375,-0.22857666015625,-0.6846923828125,0.6414794921875,0.259765625,1.0,-31.0,-10.0,61.0,-977.0,-41.0,
340,6.7076921463012695,0.015043258666992188,66.47495879295043,50.68807461408042,100533.25,57.0,-1002.0,-33.0,-3.25,52.75,-8.25,-10.8125,-0.9375,-2.3125,224.125,3.625,92.625,-0.22869873046875,-0.68597412109375,0.64007568359375,0.259521484375,-4.0,-24.0,10.0,62.0,-977.0,-44.0,
341,6.7257399559021,0.018047809600830078,55.40838595471479,50.70074106875916,100533.25,50.0,-1001.0,-25.0,-4.0625,52.75,-8.75,-8.25,-2.5,-0.25,224.0625,3.625,92.75,-0.228759765625,-0.68658447265625,0.6395263671875,0.25933837890625,-9.0,-21.0,21.0,62.0,-977.0,-46.0,
342,6.7437872886657715,0.018047332763671875,55.40984992601987,50.713343313007016,100533.25,55.0,-996.0,-25.0,-4.0625,52.75,-8.75,-5.875,-3.6875,0.875,224.0625,3.625,92.8125,-0.22882080078125,-0.68743896484375,0.63885498046875,0.25860595703125,-6.0,-18.0,23.0,62.0,-977.0,-48.0,
343,6.760834693908691,0.017047405242919922,58.65995356773237,50.733380644409586,100533.25,52.0,-974.0,-11.0,-4.0625,52.75,-8.75,0.0625,-5.625,2.5,223.875,3.5625,92.875,-0.22857666015625,-0.68768310546875,0.63909912109375,0.25775146484375,-8.0,2.0,37.0,61.0,-977.0,-49.0,
344,6.779890060424805,0.01905536651611328,52.47865472198588,50.73828586218198,100533.25,63.0,-982.0,-17.0,-3.6875,54.25,-8.25,4.6875,-6.75,3.625,223.6875,3.4375,92.75,-0.22802734375,-0.6871337890625,0.64019775390625,0.2568359375,3.0,-5.0,29.0,59.0,-977.0,-47.0,
345,6.794925689697266,0.015035629272460938,66.5086895851833,50.773182188453156,100533.25,71.0,-981.0,-29.0,-3.6875,54.25,-8.25,6.1875,-6.375,3.4375,223.5625,3.4375,92.6875,-0.22772216796875,-0.686767578125,0.640869140625,0.2564697265625,10.0,-3.0,22.0,59.0,-977.0,-46.0,
346,6.810968399047852,0.016042709350585938,62.33361074783022,50.80041188392087,100533.25,72.0,-971.0,-28.0,-3.6875,54.25,-8.25,6.1875,-5.25,2.4375,223.4375,3.375,92.5625,-0.22705078125,-0.6861572265625,0.64202880859375,0.255859375,13.0,6.0,15.0,58.0,-977.0,-43.0,
347,6.829016923904419,0.018048524856567383,55.40619014279864,50.812584573535716,100533.25,74.0,-970.0,-31.0,-3.25,53.875,-7.5,3.75,-4.0625,1.0,223.3125,3.375,92.4375,-0.22650146484375,-0.68572998046875,0.642822265625,0.25543212890625,13.0,2.0,13.0,58.0,-978.0,-42.0,
348,6.8445611000061035,0.01554417610168457,64.33277604797767,50.84328927967196,100533.25,73.0,-970.0,-33.0,-3.25,53.875,-7.5,2.625,-2.9375,-0.1875,223.3125,3.375,92.4375,-0.2261962890625,-0.6856689453125,0.64300537109375,0.25531005859375,15.0,7.0,7.0,58.0,-978.0,-41.0,
349,6.861111879348755,0.016550779342651367,60.420115530330314,50.866391065630964,100533.25,67.0,-979.0,-23.0,-3.25,53.875,-7.5,0.3125,0.125,-2.5625,223.3125,3.4375,92.375,-0.225830078125,-0.6856689453125,0.64306640625,0.25555419921875,9.0,-1.0,17.0,58.0,-978.0,-41.0,
350,6.878157615661621,0.01704573631286621,58.66569690188125,50.885719629780965,100533.25,66.0,-979.0,-24.0,-4.0625,53.875,-8.0,-1.3125,1.5625,-3.25,223.4375,3.5,92.4375,-0.2255859375,-0.685791015625,0.642822265625,0.25604248046875,2.0,-6.0,9.0,60.0,-977.0,-41.0,
351,6.89420223236084,0.01604461669921875,62.326200665715646,50.91234462958365,100533.25,53.0,-983.0,-51.0,-4.0625,53.875,-8.0,-1.1875,1.6875,-2.9375,223.4375,3.5,92.4375,-0.22552490234375,-0.6859130859375,0.64263916015625,0.25628662109375,-7.0,-5.0,-9.0,60.0,-977.0,-41.0,
352,6.908239364624023,0.014037132263183594,71.2396222569468,50.95364845094035,100533.25,53.0,-975.0,-46.0,-4.0625,53.875,-8.0,-0.5625,0.625,-1.0,223.5,3.5625,92.4375,-0.22552490234375,-0.68597412109375,0.6424560546875,0.25653076171875,-7.0,2.0,-4.0,61.0,-977.0,-42.0,
353,6.92528510093689,0.01704573631286621,58.66569690188125,50.97263070833637,100533.25,60.0,-974.0,-38.0,-4.0625,52.75,-8.75,1.0625,-1.0,-0.875,223.5,3.5625,92.4375,-0.2254638671875,-0.68597412109375,0.6424560546875,0.256591796875,-2.0,-3.0,2.0,61.0,-977.0,-42.0,
354,6.942334175109863,0.017049074172973633,58.65421135801088,50.99149523357508,100533.25,57.0,-975.0,-52.0,-4.0625,52.75,-8.75,1.75,-1.75,-1.25,223.5,3.5625,92.375,-0.22515869140625,-0.68597412109375,0.642578125,0.256591796875,-4.0,1.0,-10.0,61.0,-977.0,-41.0,
355,6.961388111114502,0.019053936004638672,52.482594659526015,50.995576504807936,100533.25,61.0,-978.0,-38.0,-4.0625,52.75,-8.75,2.125,-2.6875,-1.9375,223.5,3.625,92.375,-0.22454833984375,-0.6859130859375,0.64288330078125,0.256591796875,0.0,-1.0,2.0,62.0,-977.0,-40.0,
356,6.978432893753052,0.017044782638549805,58.66897931208124,51.01431874750617,100535.75,60.0,-976.0,-32.0,-3.6875,53.0625,-8.25,2.5,-2.5,-2.5,223.5,3.625,92.3125,-0.2242431640625,-0.68585205078125,0.64300537109375,0.25665283203125,-2.0,1.0,8.0,62.0,-977.0,-40.0,
357,6.9944748878479,0.016041994094848633,62.33638998290852,51.04028618649366,100535.75,57.0,-990.0,-44.0,-3.6875,53.0625,-8.25,1.375,-2.375,-3.5625,223.5,3.6875,92.3125,-0.2235107421875,-0.6859130859375,0.6431884765625,0.25677490234375,-5.0,-13.0,-4.0,63.0,-977.0,-40.0,
358,7.0115203857421875,0.01704549789428711,58.66651746999748,51.05882608970048,100535.75,44.0,-995.0,-31.0,-3.6875,53.0625,-8.25,-0.5625,-1.25,-2.5,223.5,3.75,92.3125,-0.2230224609375,-0.68603515625,0.64312744140625,0.2568359375,-20.0,-17.0,8.0,64.0,-977.0,-39.0,
359,7.027562379837036,0.016041994094848633,62.33638998290852,51.08456966956513,100535.75,45.0,-993.0,-22.0,-4.375,53.0625,-8.75,-1.1875,-1.125,-1.5625,223.5,3.75,92.3125,-0.222900390625,-0.68609619140625,0.64312744140625,0.2568359375,-13.0,-10.0,12.0,64.0,-977.0,-40.0,
360,7.043607234954834,0.01604485511779785,62.32527452932523,51.11017522576391,100535.75,51.0,-987.0,-27.0,-4.375,53.0625,-8.75,-1.0625,-0.4375,-0.8125,223.5,3.75,92.3125,-0.222900390625,-0.686279296875,0.64300537109375,0.25677490234375,-5.0,-13.0,12.0,64.0,-977.0,-40.0,
361,7.059654712677002,0.01604747772216797,62.31508884530813,51.135645395199475,100535.75,59.0,-989.0,-22.0,-4.375,53.0625,-8.75,0.4375,-0.5,-1.875,223.5,3.75,92.3125,-0.22265625,-0.68621826171875,0.64300537109375,0.25689697265625,-7.0,-16.0,24.0,64.0,-977.0,-40.0,
362,7.07569694519043,0.016042232513427734,62.33546354367922,51.16103795910347,100535.75,51.0,-982.0,-18.0,-3.25,52.75,-8.25,1.375,-0.0625,-2.1875,223.5625,3.8125,92.3125,-0.2225341796875,-0.6861572265625,0.64312744140625,0.25701904296875,-13.0,-4.0,21.0,65.0,-977.0,-39.0,
363,7.090737342834473,0.015040397644042969,66.48760382981422,51.193547645200645,100535.75,54.0,-989.0,-26.0,-3.25,52.75,-8.25,2.625,-0.1875,-2.125,223.5625,3.8125,92.25,-0.22222900390625,-0.6859130859375,0.64337158203125,0.25738525390625,-14.0,-18.0,2.0,65.0,-977.0,-38.0,
364,7.108785390853882,0.01804804801940918,55.40765399807131,51.204246574713046,100535.75,47.0,-989.0,-32.0,-3.25,52.75,-8.25,2.625,0.0625,-1.125,223.5625,3.8125,92.1875,-0.22198486328125,-0.68560791015625,0.6436767578125,0.257568359375,-21.0,-16.0,-2.0,66.0,-977.0,-38.0,
365,7.1268322467803955,0.018046855926513672,55.41131397468756,51.21489988274829,100535.75,46.0,-987.0,-39.0,-3.25,53.5,-8.25,2.0,0.25,0.0,223.5625,3.8125,92.1875,-0.22198486328125,-0.68548583984375,0.643798828125,0.257568359375,-19.0,-9.0,-1.0,65.0,-977.0,-37.0,
366,7.143879413604736,0.01704716682434082,58.66077397518916,51.2326676879502,100535.75,51.0,-985.0,-33.0,-3.25,53.5,-8.25,1.0625,-0.125,1.375,223.5625,3.8125,92.125,-0.22210693359375,-0.685302734375,0.64404296875,0.25738525390625,-10.0,-8.0,-7.0,65.0,-977.0,-37.0,
367,7.160927772521973,0.017048358917236328,58.65667216737057,51.25034236600714,100535.75,59.0,-983.0,-37.0,-3.25,53.5,-8.25,0.1875,0.3125,-0.1875,223.5,3.8125,92.125,-0.22216796875,-0.68524169921875,0.64404296875,0.25732421875,-3.0,-4.0,-4.0,65.0,-977.0,-37.0,
368,7.176973104476929,0.016045331954956055,62.323422339113506,51.27509810095917,100535.75,56.0,-976.0,-32.0,-3.6875,53.0625,-8.25,-0.4375,1.1875,-1.4375,223.5625,3.8125,92.125,-0.22210693359375,-0.68524169921875,0.64398193359375,0.25750732421875,-7.0,0.0,6.0,65.0,-977.0,-37.0,
369,7.193014621734619,0.01604151725769043,62.33824294398288,51.299770597576575,100535.75,57.0,-977.0,-31.0,-3.6875,53.0625,-8.25,-0.625,1.625,-2.0,223.625,3.8125,92.125,-0.22210693359375,-0.685302734375,0.6439208984375,0.2576904296875,-11.0,-3.0,3.0,65.0,-977.0,-37.0,
370,7.210059881210327,0.017045259475708008,58.66733806106892,51.317188219786246,100535.75,56.0,-983.0,-29.0,-3.6875,53.0625,-8.25,0.1875,2.0625,-2.3125,223.6875,3.875,92.125,-0.22210693359375,-0.68524169921875,0.64373779296875,0.2581787109375,-21.0,-16.0,2.0,66.0,-977.0,-37.0,
371,7.2271034717559814,0.017043590545654297,58.67308284139552,51.33453553694002,100535.75,46.0,-995.0,-24.0,-4.0625,53.5,-10.0,0.625,1.25,-2.0,223.6875,3.875,92.125,-0.22210693359375,-0.6851806640625,0.64373779296875,0.25830078125,-19.0,-17.0,12.0,66.0,-977.0,-36.0,
372,7.244157791137695,0.017054319381713867,58.63617172973955,51.35172517295173,100535.75,41.0,-999.0,-28.0,-4.0625,53.5,-10.0,0.9375,1.375,0.0,223.6875,3.875,92.125,-0.2222900390625,-0.68505859375,0.64385986328125,0.2584228515625,-23.0,-22.0,2.0,66.0,-977.0,-36.0,
373,7.2602012157440186,0.016043424606323242,62.33083176056233,51.37598654857327,100535.75,48.0,-1006.0,-29.0,-4.0625,53.5,-10.0,1.0625,1.8125,1.6875,223.6875,3.8125,92.0625,-0.22265625,-0.68475341796875,0.64404296875,0.2584228515625,-16.0,-29.0,6.0,65.0,-977.0,-36.0,
374,7.276242971420288,0.01604175567626953,62.337316449676,51.400152725658224,100535.75,51.0,-996.0,-23.0,-3.25,54.25,-8.25,1.3125,1.5,2.1875,223.6875,3.8125,92.0625,-0.22283935546875,-0.6845703125,0.6441650390625,0.2584228515625,-14.0,-18.0,12.0,65.0,-977.0,-35.0,
375,7.29328727722168,0.0170443058013916,58.67062065492593,51.417143702976865,100535.75,53.0,-994.0,-22.0,-3.25,54.25,-8.25,1.0625,2.25,2.75,223.6875,3.75,92.0625,-0.223388671875,-0.6842041015625,0.6444091796875,0.25836181640625,-10.0,-15.0,5.0,64.0,-977.0,-35.0,
376,7.311336517333984,0.018049240112304688,55.403994504913875,51.42698590176576,100535.75,52.0,-985.0,-29.0,-3.25,54.25,-8.25,1.125,2.5,3.1875,223.625,3.6875,92.0,-0.2239990234375,-0.68377685546875,0.64459228515625,0.25830078125,-8.0,-5.0,8.0,63.0,-978.0,-34.0,
377,7.327378511428833,0.016041994094848633,62.33638998290852,51.45087010476893,100535.75,63.0,-977.0,-27.0,-3.6875,53.875,-9.1875,0.8125,2.875,3.1875,223.625,3.625,92.0,-0.22430419921875,-0.68359375,0.64471435546875,0.25830078125,0.0,0.0,6.0,62.0,-978.0,-34.0,
378,7.343425989151001,0.01604747772216797,62.31508884530813,51.47461151762788,100539.75,71.0,-989.0,-33.0,-3.6875,53.875,-9.1875,2.125,2.0,2.375,223.625,3.5625,91.9375,-0.22479248046875,-0.6832275390625,0.6448974609375,0.25836181640625,3.0,-7.0,-11.0,61.0,-978.0,-33.0,
379,7.359469652175903,0.016043663024902344,62.32990548653629,51.498276086775455,100539.75,67.0,-987.0,-47.0,-3.6875,53.875,-9.1875,1.9375,1.125,1.125,223.625,3.5625,91.9375,-0.2249755859375,-0.68292236328125,0.6451416015625,0.25848388671875,-5.0,0.0,-3.0,61.0,-978.0,-33.0,
380,7.37551212310791,0.016042470932006836,62.33453713198686,51.52184603011333,100539.75,60.0,-984.0,-32.0,-4.0625,53.5,-8.75,1.375,0.75,1.0625,223.625,3.5625,91.875,-0.22503662109375,-0.68280029296875,0.645263671875,0.25848388671875,0.0,-5.0,0.0,61.0,-978.0,-33.0,
381,7.391554355621338,0.016042232513427734,62.33546354367922,51.54531532467814,100539.75,57.0,-984.0,-32.0,-4.0625,53.5,-8.75,0.0625,1.75,1.5625,223.625,3.5625,91.875,-0.22552490234375,-0.6826171875,0.645263671875,0.258544921875,0.0,-9.0,-10.0,60.0,-978.0,-33.0,
382,7.408602476119995,0.017048120498657227,58.65749248304314,51.561681333462445,100539.75,67.0,-989.0,-44.0,-4.0625,53.5,-8.75,-0.6875,3.5625,2.125,223.6875,3.5,91.9375,-0.22613525390625,-0.6824951171875,0.64508056640625,0.2586669921875,8.0,-5.0,-11.0,60.0,-978.0,-33.0,
383,7.42464542388916,0.01604294776916504,62.332684391208076,51.58495498891823,100539.75,66.0,-980.0,-39.0,-4.0625,53.875,-8.25,-0.0625,1.9375,1.6875,223.6875,3.4375,91.9375,-0.226318359375,-0.68243408203125,0.64508056640625,0.2586669921875,6.0,-2.0,-6.0,59.0,-978.0,-33.0,
384,7.4416937828063965,0.017048358917236328,58.65667216737057,51.60115575935277,100539.75,65.0,-978.0,-44.0,-4.0625,53.875,-8.25,1.0,0.6875,1.5,223.6875,3.4375,91.875,-0.22650146484375,-0.6822509765625,0.645263671875,0.25860595703125,6.0,6.0,-10.0,59.0,-978.0,-32.0,
385,7.458740711212158,0.01704692840576172,58.66159440559441,51.61729236964341,100539.75,67.0,-975.0,-36.0,-4.0625,53.875,-8.25,1.1875,0.5,2.375,223.625,3.375,91.875,-0.22674560546875,-0.68206787109375,0.64544677734375,0.25836181640625,11.0,-4.0,-8.0,58.0,-978.0,-32.0,
386,7.474783182144165,0.016042470932006836,62.33453713198686,51.64029385120903,100539.75,70.0,-989.0,-36.0,-4.0625,53.0625,-8.25,0.875,-0.0625,1.625,223.5625,3.375,91.875,-0.226806640625,-0.6820068359375,0.64556884765625,0.25830078125,12.0,-11.0,-4.0,58.0,-978.0,-32.0,
387,7.493833541870117,0.01905035972595215,52.49244709209917,51.642460142425655,100539.75,65.0,-979.0,-35.0,-4.0625,53.0625,-8.25,0.9375,0.0625,0.625,223.5625,3.375,91.875,-0.226806640625,-0.68194580078125,0.64556884765625,0.25830078125,8.0,-12.0,-2.0,58.0,-978.0,-32.0,
388,7.509876251220703,0.016042709350585938,62.33361074783022,51.66529873737027,100539.75,67.0,-980.0,-29.0,-4.0625,53.0625,-8.25,-0.25,0.4375,0.625,223.5625,3.375,91.875,-0.226806640625,-0.68194580078125,0.6456298828125,0.25830078125,8.0,-11.0,9.0,58.0,-978.0,-32.0,
389,7.525919198989868,0.01604294776916504,62.332684391208076,51.688038326562385,100539.75,63.0,-996.0,-18.0,-3.6875,53.875,-8.25,-0.5,1.0,0.125,223.625,3.375,91.875,-0.2269287109375,-0.681884765625,0.64556884765625,0.2584228515625,8.0,-11.0,9.0,58.0,-978.0,-32.0,
390,7.541965007781982,0.016045808792114258,62.32157025898575,51.71066155804071,100539.75,58.0,-993.0,-21.0,-3.6875,53.875,-8.25,-0.0625,1.0,0.0625,223.625,3.375,91.875,-0.2269287109375,-0.681884765625,0.64556884765625,0.2584228515625,0.0,-10.0,1.0,58.0,-978.0,-32.0,
391,7.5600152015686035,0.018050193786621094,55.4010672584139,51.71947272260414,100539.75,55.0,-988.0,-24.0,-3.6875,53.875,-8.25,0.5,0.3125,1.1875,223.5625,3.375,91.875,-0.22705078125,-0.6817626953125,0.64569091796875,0.25830078125,0.0,-4.0,10.0,57.0,-978.0,-32.0,
392,7.5760579109191895,0.016042709350585938,62.33361074783022,51.74194872969752,100539.75,59.0,-986.0,-18.0,-3.25,54.25,-8.75,1.5625,0.5,1.1875,223.5625,3.3125,91.8125,-0.22705078125,-0.681640625,0.64581298828125,0.25830078125,1.0,-8.0,13.0,57.0,-978.0,-31.0,
393,7.592099189758301,0.016041278839111328,62.33916946583039,51.764339503118556,100539.75,57.0,-988.0,-24.0,-3.25,54.25,-8.75,2.0625,0.75,0.6875,223.5625,3.3125,91.8125,-0.22711181640625,-0.6815185546875,0.64593505859375,0.25830078125,0.0,-9.0,6.0,57.0,-978.0,-31.0,
394,7.609144449234009,0.017045259475708008,58.66733806106892,51.779802923791635,100539.75,53.0,-987.0,-34.0,-3.25,54.25,-8.75,1.5,1.125,0.0,223.5625,3.3125,91.75,-0.2271728515625,-0.68115234375,0.64617919921875,0.25860595703125,-4.0,-8.0,0.0,57.0,-978.0,-30.0,
395,7.6251890659332275,0.01604461669921875,62.326200665715646,51.80199423050725,100539.75,54.0,-988.0,-31.0,-3.6875,54.25,-8.25,0.5625,1.9375,0.6875,223.625,3.3125,91.75,-0.22735595703125,-0.68109130859375,0.6461181640625,0.2586669921875,-3.0,-10.0,0.0,57.0,-978.0,-30.0,
396,7.642273426055908,0.017084360122680664,58.53306725093152,51.817041595222165,100539.75,56.0,-989.0,-33.0,-3.6875,54.25,-8.25,0.1875,1.9375,0.75,223.625,3.3125,91.75,-0.22747802734375,-0.6810302734375,0.6461181640625,0.2587890625,-3.0,-11.0,-2.0,57.0,-978.0,-30.0,
397,7.6593170166015625,0.017043590545654297,58.67308284139552,51.83229772830957,100539.75,54.0,-993.0,-32.0,-3.6875,54.25,-8.25,0.25,0.9375,1.3125,223.625,3.3125,91.75,-0.2279052734375,-0.680908203125,0.6461181640625,0.25872802734375,-3.0,-17.0,-4.0,56.0,-978.0,-30.0,
398,7.6753623485565186,0.016045331954956055,62.323422339113506,51.85422940649188,100539.75,51.0,-996.0,-30.0,-3.25,52.375,-8.25,1.1875,0.375,1.4375,223.625,3.25,91.75,-0.22796630859375,-0.6807861328125,0.646240234375,0.2586669921875,-4.0,-17.0,0.0,56.0,-978.0,-30.0,
399,7.692408084869385,0.01704573631286621,58.66569690188125,51.869323051752126,100539.75,48.0,-1005.0,-27.0,-3.25,52.375,-8.25,1.625,-0.0625,1.0625,223.5625,3.25,91.75,-0.22796630859375,-0.6806640625,0.6463623046875,0.2586669921875,-5.0,-17.0,0.0,56.0,-978.0,-30.0,
400,7.709452867507935,0.017044782638549805,58.66897931208124,51.88435637058369,100539.75,44.0,-1005.0,-25.0,-3.25,52.375,-8.25,2.1875,-1.125,1.625,223.5625,3.25,91.6875,-0.22802734375,-0.6802978515625,0.64691162109375,0.25836181640625,-8.0,-22.0,10.0,55.0,-978.0,-28.0,
401,7.7254955768585205,0.016042709350585938,62.33361074783022,51.90605521815104,100535.75,45.0,-998.0,-25.0,-3.6875,53.875,-8.0,1.875,0.1875,2.5,223.5,3.1875,91.625,-0.2281494140625,-0.68011474609375,0.6470947265625,0.25823974609375,-9.0,-20.0,2.0,54.0,-978.0,-28.0,
402,7.742579221725464,0.01708364486694336,58.53551790549027,51.92068282259213,100535.75,48.0,-990.0,-36.0,-3.6875,53.875,-8.0,1.4375,0.5625,3.0,223.4375,3.125,91.625,-0.228271484375,-0.679931640625,0.647216796875,0.25811767578125,-8.0,-16.0,-1.0,54.0,-978.0,-28.0,
403,7.760124683380127,0.017545461654663086,56.994795559239584,51.932155273626705,100535.75,49.0,-996.0,-28.0,-3.6875,53.875,-8.0,1.0,0.75,3.6875,223.375,3.0625,91.625,-0.22869873046875,-0.6796875,0.64752197265625,0.2578125,-2.0,-12.0,0.0,53.0,-978.0,-27.0,
404,7.776169538497925,0.01604485511779785,62.32527452932523,51.95359977684311,100535.75,48.0,-985.0,-25.0,-3.25,53.875,-9.5625,0.75,1.0625,3.125,223.3125,3.0,91.5625,-0.22906494140625,-0.679443359375,0.64776611328125,0.257568359375,-3.0,-6.0,1.0,52.0,-978.0,-27.0,
405,7.79221248626709,0.01604294776916504,62.332684391208076,51.97496869005659,100535.75,47.0,-992.0,-37.0,-3.25,53.875,-9.5625,0.6875,0.375,2.9375,223.3125,2.9375,91.5625,-0.22930908203125,-0.6793212890625,0.6478271484375,0.2574462890625,-5.0,-8.0,0.0,51.0,-978.0,-27.0,
406,7.809257507324219,0.017045021057128906,58.668158675096514,51.9895777055907,100535.75,45.0,-990.0,-31.0,-3.25,53.875,-9.5625,0.125,0.6875,3.0,223.25,2.9375,91.5625,-0.22967529296875,-0.67913818359375,0.64794921875,0.25714111328125,-5.0,-11.0,-4.0,50.0,-978.0,-27.0,
407,7.8252997398376465,0.016042232513427734,62.33546354367922,52.010787258156085,100535.75,45.0,-990.0,-21.0,-3.25,53.875,-8.75,-0.25,0.8125,3.1875,223.1875,2.875,91.5625,-0.2301025390625,-0.67901611328125,0.6480712890625,0.25689697265625,-4.0,-11.0,5.0,49.0,-979.0,-27.0,
408,7.841345310211182,0.016045570373535156,62.322496285289745,52.03188787881755,100535.75,42.0,-993.0,-19.0,-3.25,53.875,-8.75,0.125,0.4375,3.4375,223.125,2.8125,91.5625,-0.23052978515625,-0.6788330078125,0.64825439453125,0.25653076171875,-5.0,-14.0,8.0,48.0,-979.0,-27.0,
409,7.85839319229126,0.017047882080078125,58.658312821660324,52.046263147180156,100535.75,46.0,-993.0,-16.0,-3.25,53.875,-8.75,0.125,1.0,3.5625,223.125,2.75,91.5625,-0.23077392578125,-0.67877197265625,0.6483154296875,0.25634765625,-1.0,-14.0,11.0,47.0,-979.0,-27.0,
410,7.877443075180054,0.019049882888793945,52.49376102927373,52.047345323486034,100535.75,40.0,-998.0,-2.0,-3.25,53.875,-9.5625,0.3125,1.375,3.625,223.0625,2.6875,91.5625,-0.2313232421875,-0.678466796875,0.64849853515625,0.256103515625,-6.0,-18.0,24.0,46.0,-979.0,-27.0,
411,7.8924829959869385,0.015039920806884766,66.48971180368409,52.074866706583926,100535.75,39.0,-989.0,1.0,-3.25,53.875,-9.5625,0.3125,2.0625,4.0,223.0,2.625,91.5625,-0.23199462890625,-0.6781005859375,0.64874267578125,0.25592041015625,-5.0,-10.0,28.0,45.0,-979.0,-26.0,
412,7.908526182174683,0.01604318618774414,62.331758062119185,52.095673771507755,100535.75,42.0,-994.0,18.0,-3.25,53.875,-9.5625,0.9375,2.5625,3.5,223.0,2.5625,91.5,-0.2322998046875,-0.67779541015625,0.64898681640625,0.2559814453125,-2.0,-15.0,44.0,44.0,-979.0,-26.0,
413,7.924566984176636,0.016040802001953125,62.3410225921522,52.11641226891728,100535.75,27.0,-1000.0,37.0,-3.25,52.375,-8.0,2.8125,5.25,2.25,223.0625,2.5,91.4375,-0.23297119140625,-0.67724609375,0.649169921875,0.25628662109375,-16.0,-21.0,63.0,43.0,-979.0,-25.0,
414,7.941616058349609,0.017049074172973633,58.65421135801088,52.13044762655469,100535.75,14.0,-1002.0,31.0,-3.25,52.375,-8.0,4.375,6.875,3.0,223.125,2.5,91.375,-0.23382568359375,-0.6763916015625,0.64947509765625,0.25689697265625,-28.0,-23.0,55.0,42.0,-979.0,-23.0,
415,7.957353115081787,0.015737056732177734,63.544283852983064,52.153020482833575,100535.75,9.0,-998.0,47.0,-3.25,52.375,-8.0,4.9375,6.875,4.5625,223.1875,2.4375,91.3125,-0.234375,-0.6759033203125,0.64971923828125,0.25714111328125,-33.0,-19.0,70.0,42.0,-979.0,-23.0,
416,7.973386287689209,0.016033172607421875,62.37068760409232,52.17356653625297,100535.75,7.0,-999.0,91.0,-3.25,52.75,-8.25,5.0,9.1875,7.1875,223.1875,2.3125,91.1875,-0.23583984375,-0.6746826171875,0.65020751953125,0.25762939453125,-32.0,-19.0,112.0,40.0,-979.0,-21.0,
417,7.990434646606445,0.017048358917236328,58.65667216737057,52.187398864103194,100535.75,8.0,-1000.0,113.0,-3.25,52.75,-8.25,5.0625,15.8125,6.8125,223.3125,2.1875,91.125,-0.23797607421875,-0.67327880859375,0.65057373046875,0.25860595703125,-29.0,-20.0,132.0,37.0,-979.0,-19.0,
418,8.008480310440063,0.018045663833618164,55.414974434858436,52.194671622665325,100535.75,5.0,-996.0,121.0,-3.25,52.75,-8.25,5.9375,18.75,6.125,223.4375,2.125,91.0625,-0.23919677734375,-0.67242431640625,0.650634765625,0.25946044921875,-31.0,-16.0,139.0,36.0,-979.0,-18.0,
419,8.024522304534912,0.016041994094848633,62.33638998290852,52.21494614865857,100535.75,-13.0,-1015.0,129.0,-2.1875,52.75,-9.1875,8.375,24.6875,5.5625,223.8125,2.0,90.875,-0.2420654296875,-0.6702880859375,0.65081787109375,0.26177978515625,-48.0,-35.0,144.0,35.0,-979.0,-15.0,
420,8.042073726654053,0.017551422119140625,56.97544012171267,52.225335687732276,100535.75,-31.0,-1033.0,121.0,-2.1875,52.75,-9.1875,11.75,28.75,6.625,224.1875,1.875,90.625,-0.245361328125,-0.6676025390625,0.65118408203125,0.2646484375,-64.0,-53.0,133.0,33.0,-980.0,-11.0,
421,8.060622930526733,0.018549203872680664,53.910669528669295,52.229213998537595,100535.75,-52.0,-1028.0,135.0,-2.1875,52.75,-9.1875,16.0625,33.0,10.375,224.625,1.75,90.3125,-0.249267578125,-0.66412353515625,0.6519775390625,0.26788330078125,-82.0,-48.0,141.0,30.0,-980.0,-6.0,
422,8.0786714553833,0.018048524856567383,55.40619014279864,52.23631166716109,100535.75,-58.0,-1021.0,138.0,-1.375,53.0625,-8.25,18.5,40.125,14.5625,225.125,1.5,89.9375,-0.254150390625,-0.6597900390625,0.65301513671875,0.2713623046875,-84.0,-41.0,138.0,25.0,-980.0,-3.0,
423,8.094714641571045,0.01604318618774414,62.331758062119185,52.25632017065187,100535.75,-64.0,-1009.0,138.0,-1.375,53.0625,-8.25,19.5625,43.8125,15.4375,225.375,1.3125,89.75,-0.25701904296875,-0.65740966796875,0.65350341796875,0.27337646484375,-87.0,-29.0,134.0,23.0,-980.0,3.0,
424,8.110758781433105,0.016044139862060547,62.32805302107172,52.27624337325966,100536.5,-63.0,-989.0,148.0,-1.375,53.0625,-8.25,19.4375,53.6875,16.75,226.0,1.0,89.375,-0.2635498046875,-0.652099609375,0.6541748046875,0.278076171875,-80.0,-8.0,137.0,17.0,-980.0,10.0,
425,8.12579870223999,0.015039920806884766,66.48971180368409,52.30255087205677,100536.5,-59.0,-997.0,150.0,-1.0625,54.25,-9.25,17.9375,59.0625,16.5,226.4375,0.8125,89.1875,-0.26727294921875,-0.64935302734375,0.65423583984375,0.28082275390625,-74.0,-17.0,136.0,14.0,-980.0,13.0,
426,8.1398344039917,0.014035701751708984,71.24688296245965,52.3352170151144,100536.5,-49.0,-989.0,133.0,-1.0625,54.25,-9.25,14.25,68.0,15.1875,227.375,0.5,88.875,-0.27557373046875,-0.64373779296875,0.65362548828125,0.28704833984375,-58.0,-9.0,114.0,9.0,-980.0,18.0,
427,8.156885385513306,0.017050981521606445,58.64765020904121,52.34841239259723,100536.5,-43.0,-989.0,141.0,-1.0625,54.25,-9.25,11.0625,71.125,14.9375,227.9375,0.375,88.75,-0.280029296875,-0.64105224609375,0.6529541015625,0.29034423828125,-49.0,-9.0,120.0,6.0,-980.0,20.0,
428,8.174935340881348,0.018049955368041992,55.4017990410398,52.355154157568776,100536.5,-7.0,-1034.0,164.0,-0.25,52.0,-10.5,5.6875,76.6875,13.0625,229.0625,0.0625,88.625,-0.2894287109375,-0.63592529296875,0.6507568359375,0.2972412109375,-8.0,-54.0,141.0,1.0,-980.0,23.0,
429,8.190975427627563,0.01604008674621582,62.34380248822034,52.37471456122481,100536.5,-9.0,-1048.0,127.0,-0.25,52.0,-10.5,2.5625,90.0625,9.125,230.5,-0.125,88.5625,-0.29986572265625,-0.63067626953125,0.64727783203125,0.3055419921875,-6.0,-67.0,103.0,-2.0,-980.0,24.0,
430,8.208022594451904,0.01704716682434082,58.66077397518916,52.387770020352086,100536.5,-22.0,-1083.0,32.0,-0.25,52.0,-10.5,2.25,97.5,9.0,232.1875,-0.3125,88.5625,-0.305419921875,-0.62786865234375,0.64520263671875,0.31024169921875,-9.0,-87.0,44.0,-4.0,-980.0,24.0,
431,8.225067853927612,0.017045259475708008,58.66733806106892,52.40078351380287,100536.5,-22.0,-1090.0,7.0,0.375,52.75,-11.25,2.0625,95.9375,11.1875,232.9375,-0.5,88.5,-0.31689453125,-0.6219482421875,0.640869140625,0.3194580078125,-14.0,-110.0,-17.0,-8.0,-980.0,25.0,
432,8.241111278533936,0.016043424606323242,62.33083176056233,52.42011488490073,100536.5,-22.0,-1067.0,-21.0,0.375,52.75,-11.25,1.125,87.8125,20.4375,234.3125,-0.875,88.5,-0.32843017578125,-0.6158447265625,0.63714599609375,0.3270263671875,-6.0,-87.0,-47.0,-15.0,-980.0,25.0,
433,8.259166955947876,0.01805567741394043,55.384241591950456,52.426594874459234,100536.5,-1.0,-1069.0,2.0,0.375,52.75,-11.25,-0.5625,82.0,27.8125,235.375,-1.4375,88.5,-0.340087890625,-0.6097412109375,0.6339111328125,0.332763671875,23.0,-89.0,-21.0,-24.0,-980.0,24.0,
434,8.275209188461304,0.016042232513427734,62.33546354367922,52.44580410186563,100536.5,18.0,-1041.0,-6.0,1.875,52.0,-11.1875,-0.75,82.75,29.125,235.875,-1.75,88.5625,-0.34600830078125,-0.60662841796875,0.63232421875,0.33538818359375,48.0,-61.0,-30.0,-30.0,-979.0,24.0,
435,8.292254209518433,0.017045021057128906,58.668158675096514,52.45859437119962,100536.5,21.0,-1040.0,-43.0,1.875,52.0,-11.1875,-0.0625,82.4375,26.625,236.875,-2.3125,88.625,-0.357666015625,-0.60028076171875,0.62890625,0.34088134765625,60.0,-61.0,-66.0,-39.0,-979.0,23.0,
436,8.30829668045044,0.016042470932006836,62.33453713198686,52.47766380633894,100536.5,-15.0,-1071.0,-60.0,1.875,52.0,-11.1875,0.25,81.375,23.5,237.9375,-2.8125,88.6875,-0.3687744140625,-0.59405517578125,0.62530517578125,0.34661865234375,32.0,-92.0,-82.0,-44.0,-979.0,22.0,
437,8.323336601257324,0.015039920806884766,66.48971180368409,52.50298299049767,100536.5,-30.0,-1068.0,-57.0,2.6875,52.75,-10.75,-1.875,80.625,24.1875,238.5,-3.0625,88.75,-0.374267578125,-0.59100341796875,0.62335205078125,0.34930419921875,22.0,-89.0,-78.0,-52.0,-979.0,20.0,
438,8.338374137878418,0.01503753662109375,66.50025367833587,52.52822585764219,100536.5,-48.0,-1103.0,-77.0,2.6875,52.75,-10.75,-8.5,76.75,34.0,239.375,-3.6875,89.0,-0.38592529296875,-0.58514404296875,0.61956787109375,0.35333251953125,14.0,-125.0,-94.0,-63.0,-978.0,17.0,
439,8.353922128677368,0.015547990798950195,64.31699201079539,52.55016664483854,100536.5,-20.0,-1094.0,-69.0,2.6875,52.75,-10.75,-11.5625,74.125,40.5,239.6875,-4.0625,89.125,-0.39215087890625,-0.5821533203125,0.6177978515625,0.3544921875,50.0,-116.0,-83.0,-70.0,-978.0,14.0,
440,8.368475914001465,0.01455378532409668,68.710646593385,52.578271661608916,100536.5,13.0,-1060.0,-48.0,5.25,53.0,-8.0,-16.8125,70.0,47.8125,240.0625,-5.0,89.5625,-0.40496826171875,-0.57635498046875,0.6143798828125,0.35546875,99.0,-83.0,-56.0,-86.0,-976.0,7.0,
441,8.383502960205078,0.015027046203613281,66.54667766706861,52.6033093914733,100536.5,33.0,-1027.0,-55.0,5.25,53.0,-8.0,-20.3125,72.6875,46.3125,240.3125,-5.4375,89.8125,-0.41162109375,-0.5736083984375,0.61224365234375,0.35589599609375,127.0,-51.0,-58.0,-93.0,-976.0,2.0,
