Index,Time,Difference,Hz,AveHz,0x6103 Pressure,0x6103 Acceleration-X,0x6103 Acceleration-Y,0x6103 Acceleration-Z,0x6103 Magnetic-X,0x6103 Magnetic-Y,0x6103 Magnetic-Z,0x6103 Angular-Vel-X,0x6103 Angular-Vel-Y,0x6103 Angular-Vel-Z,0x6103 Heading,0x6103 Roll,0x6103 Pitch,0x6103 Quaternion-X,0x6103 Quaternion-Y,0x6103 Quaternion-Z,0x6103 Quaternion-W,0x6103 Linear-Acceleration-X,0x6103 Linear-Acceleration-Y,0x6103 Linear-Acceleration-Z,0x6103 Gravity-X,0x6103 Gravity-Y,0x6103 Gravity-Z,0x6103 Range,0x6103 Smoothed Range,0x6103 Velocity,
0,0.0,0.0,0,0,101422.25,289.0,9.0,-932.0,-5.75,15.5,57.875,0.625,3.75,0.25,36.6875,17.75,-179.625,0.3111572265625,0.93768310546875,0.05157470703125,-0.145751953125,-9.0,3.0,1.0,300.0,5.0,-933.0,1256,1267.2,,
1,0.026662826538085938,0.026662826538085938,37.50540095858073,37.50540095858073,101422.25,301.0,9.0,-951.0,-6.0625,14.75,57.0625,1.75,0.25,1.0,36.6875,17.8125,-179.6875,0.311279296875,0.9376220703125,0.05108642578125,-0.1463623046875,-1.0,2.0,-12.0,300.0,4.0,-933.0,1270,1267.7600000000002,2.100302453681169,
2,0.05156397819519043,0.024901151657104492,40.15878517468859,38.78676684776327,101422.25,294.0,9.0,-946.0,-6.5,15.0625,57.875,1.5625,1.0,1.4375,36.75,17.8125,-179.75,0.31146240234375,0.9375,0.05084228515625,-0.1466064453125,-5.0,5.0,-12.0,300.0,4.0,-933.0,1261,1266.4080000000001,-3.5391955473052024,
3,0.07730984687805176,0.025745868682861328,38.841183116329894,38.804888654509796,101422.25,294.0,5.0,-948.0,-6.5,15.0625,57.875,1.0,1.0625,1.5,36.75,17.8125,-179.8125,0.31170654296875,0.9373779296875,0.05047607421875,-0.14691162109375,-4.0,0.0,-9.0,300.0,3.0,-933.0,1275,1268.1264,3.4891929141353466,
4,0.10343503952026367,0.026125192642211914,38.277229710614456,38.671614750206295,101422.25,313.0,2.0,-928.0,-6.0625,15.0625,56.25,1.25,-0.5625,2.0,36.8125,17.8125,-179.8125,0.31195068359375,0.93731689453125,0.05023193359375,-0.14691162109375,12.0,0.0,4.0,300.0,2.0,-933.0,1233,1261.1011200000003,-23.750552011416126,
5,0.1294417381286621,0.026006698608398438,38.45163182984965,38.62741703166961,101422.25,315.0,3.0,-939.0,-6.0625,15.0625,56.25,2.0,0.0625,1.25,36.8125,17.8125,-179.875,0.31231689453125,0.93719482421875,0.04974365234375,-0.14715576171875,16.0,5.0,-4.0,300.0,1.0,-933.0,1252,1259.2808960000002,-28.37455511986034,
6,0.15716290473937988,0.027721166610717773,36.073517902142406,38.17694773426134,101422.25,311.0,8.0,-930.0,-5.375,16.25,57.875,1.6875,0.0625,0.25,36.8125,17.8125,-179.9375,0.31231689453125,0.93719482421875,0.04949951171875,-0.147216796875,10.0,7.0,2.0,300.0,0.0,-933.0,1261,1259.6247168000002,-24.296817029481403,
7,0.1830737590789795,0.02591085433959961,38.59386444358564,38.23595492448562,101422.25,301.0,6.0,-937.0,-5.375,16.25,57.875,2.0,-1.25,0.0,36.8125,17.8125,179.9375,0.312255859375,0.937255859375,0.04888916015625,-0.1473388671875,1.0,8.0,-4.0,300.0,0.0,-933.0,1252,1258.0997734400003,-27.75248105853168,
8,0.21207284927368164,0.02899909019470215,34.483840468301665,37.72288639209982,101422.25,296.0,4.0,-940.0,-6.0625,16.5625,57.1875,1.3125,-0.625,-0.5,36.8125,17.8125,179.875,0.31219482421875,0.93731689453125,0.0484619140625,-0.147216796875,-8.0,3.0,-6.0,300.0,-1.0,-933.0,1247,1255.8798187520003,-32.632489283463265,
9,0.23810887336730957,0.02603602409362793,38.40832211569279,37.79783538816923,101422.25,293.0,-4.0,-930.0,-6.0625,16.5625,57.1875,0.75,-0.5625,-0.5,36.8125,17.8125,179.875,0.31219482421875,0.93731689453125,0.04840087890625,-0.147216796875,-11.0,-3.0,5.0,300.0,-1.0,-933.0,1270,1258.7038550016005,-18.522590961013528,
10,0.26578187942504883,0.027673006057739258,36.13629823639387,37.62483741040753,101422.25,296.0,0.0,-926.0,-6.0625,15.5,57.1875,0.25,-1.375,-0.5,36.8125,17.75,179.875,0.31219482421875,0.9373779296875,0.048095703125,-0.14691162109375,0.0,0.0,4.0,299.0,-1.0,-933.0,1242,1255.3630840012804,-28.742641585618284,
11,0.2945899963378906,0.028808116912841797,34.712438963833485,37.34003237293623,101421.0,288.0,0.0,-905.0,-6.0625,15.5,57.1875,-0.25,0.8125,-0.625,36.8125,17.75,179.875,0.3121337890625,0.9373779296875,0.04815673828125,-0.14697265625,-14.0,2.0,29.0,299.0,-1.0,-933.0,1270,1258.2904672010245,-15.706716362569592,
12,0.32325100898742676,0.028661012649536133,34.890602513871215,37.122853962899015,101421.0,282.0,4.0,-914.0,-6.5,14.75,57.5,0.9375,-0.25,-0.625,36.75,17.75,179.875,0.3118896484375,0.93743896484375,0.048095703125,-0.1470947265625,-17.0,5.0,19.0,299.0,-1.0,-933.0,1280,1262.6323737608195,1.0131288667051237,
13,0.3500969409942627,0.026845932006835938,37.249591474245115,37.13257237575532,101421.0,287.0,5.0,-897.0,-6.5,14.375,57.5,1.125,-3.4375,-0.0625,36.75,17.75,179.8125,0.31182861328125,0.9375,0.0477294921875,-0.14678955078125,-11.0,7.0,36.0,299.0,-2.0,-933.0,1275,1265.1058990086558,10.125596478347836,
14,0.37415289878845215,0.024055957794189453,41.56974370155999,37.417857900696546,101421.0,300.0,5.0,-902.0,-6.5,14.375,57.5,2.625,-1.8125,-0.125,36.75,17.625,179.75,0.31182861328125,0.9376220703125,0.04693603515625,-0.146240234375,1.0,6.0,34.0,297.0,-3.0,-934.0,1280,1268.0847192069245,21.495916048019257,
15,0.40007495880126953,0.025922060012817383,38.57718096114049,37.492973929045625,101421.0,289.0,2.0,-903.0,-5.0,15.875,57.1875,3.8125,-1.0,-0.375,36.75,17.625,179.6875,0.31170654296875,0.93768310546875,0.04638671875,-0.146240234375,-7.0,7.0,30.0,297.0,-4.0,-934.0,1256,1265.6677753655397,10.022436449015537,
16,0.42549681663513184,0.025421857833862305,39.33622815984695,37.60310153793741,101421.0,286.0,7.0,-920.0,-5.0,15.875,57.1875,4.5,-1.5625,0.0,36.75,17.5625,179.5625,0.31158447265625,0.93780517578125,0.04522705078125,-0.14630126953125,-7.0,10.0,12.0,296.0,-6.0,-934.0,1284,1269.3342202924318,23.4426042220883,
17,0.4510798454284668,0.02558302879333496,39.08841318509268,37.68734110443845,101421.0,285.0,0.0,-926.0,-6.0625,15.875,57.5,4.125,-0.375,0.125,36.6875,17.5625,179.5,0.31146240234375,0.9378662109375,0.04449462890625,-0.14642333984375,-10.0,8.0,8.0,296.0,-7.0,-934.0,1280,1271.4673762339455,29.436511882891672,
18,0.4786250591278076,0.02754521369934082,36.30394778980897,37.607725831992944,101421.0,279.0,-4.0,-940.0,-6.0625,15.875,57.5,4.4375,1.375,0.375,36.6875,17.625,179.375,0.311279296875,0.9378662109375,0.0435791015625,-0.1470947265625,-10.0,16.0,-7.0,297.0,-9.0,-934.0,1247,1266.5739009871565,8.727613707587583,
19,0.504119873046875,0.025494813919067383,39.223663415409646,37.68944851383256,101421.0,290.0,-3.0,-937.0,-5.75,15.5,57.5,4.3125,1.875,0.4375,36.6875,17.625,179.3125,0.3111572265625,0.9378662109375,0.04302978515625,-0.1475830078125,-7.0,7.0,-2.0,297.0,-10.0,-934.0,1256,1264.4591207897254,-0.4400903293325671,
20,0.5335259437561035,0.029406070709228516,34.00658353467707,37.486461968835044,101421.0,293.0,-4.0,-938.0,-5.75,15.5,57.5,3.625,2.625,-0.625,36.625,17.75,179.125,0.3109130859375,0.93780517578125,0.04205322265625,-0.14874267578125,-22.0,3.0,-1.0,299.0,-13.0,-933.0,1266,1264.7672966317803,0.6519194552215601,
21,0.5614538192749023,0.027927875518798828,35.80651880687736,37.402898117463614,101421.0,275.0,-10.0,-932.0,-6.5,15.875,57.0625,3.625,1.1875,0.75,36.625,17.75,179.0625,0.31085205078125,0.937744140625,0.04150390625,-0.14910888671875,-24.0,4.0,1.0,299.0,-14.0,-933.0,1247,1261.2138373054242,-12.136973310164603,
22,0.5894637107849121,0.028009891510009766,35.70167344784733,37.322060030982165,101421.0,286.0,-15.0,-921.0,-6.5,15.875,57.0625,2.8125,-2.375,1.875,36.6875,17.6875,179.0,0.3111572265625,0.937744140625,0.0406494140625,-0.14886474609375,-11.0,0.0,12.0,298.0,-16.0,-933.0,1252,1259.3710698443394,-17.50226419274498,
23,0.6172327995300293,0.027769088745117188,36.011264509925134,37.26308779687755,101421.0,274.0,-14.0,-905.0,-6.5,16.5625,57.875,1.6875,-0.875,1.25,36.6875,17.6875,178.9375,0.31134033203125,0.937744140625,0.040283203125,-0.14874267578125,-23.0,2.0,28.0,298.0,-16.0,-934.0,1252,1257.8968558754716,-21.060868691183128,
24,0.6427788734436035,0.02554607391357422,39.14495837533132,37.337879310536685,101421.0,246.0,0.0,-884.0,-6.5,16.5625,57.875,1.6875,0.125,2.1875,36.75,17.625,178.875,0.31170654296875,0.9376220703125,0.03985595703125,-0.14874267578125,-51.0,16.0,49.0,297.0,-17.0,-934.0,1252,1256.7174847003773,-23.571425377877915,
25,0.6730067729949951,0.0302278995513916,33.08202074377884,37.14672868557582,101424.75,282.0,-7.0,-869.0,-6.5,15.5,57.5,2.875,-3.5625,3.8125,36.8125,17.625,178.8125,0.31256103515625,0.93743896484375,0.0389404296875,-0.14837646484375,-13.0,11.0,64.0,296.0,-19.0,-934.0,1247,1254.773987760302,-27.6437634487947,
26,0.7064368724822998,0.03343009948730469,29.91316254920979,36.80442090832602,101424.75,280.0,-5.0,-879.0,-5.375,16.25,57.5,4.5625,-1.0,2.1875,36.9375,17.5625,178.625,0.31304931640625,0.93731689453125,0.03778076171875,-0.14837646484375,-15.0,16.0,55.0,295.0,-21.0,-934.0,1233,1250.4191902082416,-37.90596380828327,
27,0.7358078956604004,0.029371023178100586,34.047162536224235,36.69436025250454,101424.75,267.0,-6.0,-880.0,-5.375,16.25,57.5,3.5,-0.75,1.875,36.9375,17.5,178.5,0.3134765625,0.93719482421875,0.03656005859375,-0.1485595703125,-27.0,18.0,54.0,295.0,-24.0,-934.0,1219,1244.1353521665933,-55.510052942985894,
28,0.7633757591247559,0.02756786346435547,36.274120455253055,36.67918409159762,101424.75,269.0,-2.0,-868.0,-5.75,16.25,58.25,4.0,0.875,1.4375,37.0,17.5,178.4375,0.31365966796875,0.9371337890625,0.0360107421875,-0.14874267578125,-26.0,22.0,66.0,295.0,-25.0,-934.0,1200,1235.3082817332747,-81.97846926520735,
29,0.7935459613800049,0.030170202255249023,33.14528658242653,36.544827157292765,101424.75,255.0,-8.0,-871.0,-5.75,16.25,58.25,4.8125,-0.1875,0.75,37.0,17.5,178.3125,0.31365966796875,0.9371337890625,0.03515625,-0.14892578125,-40.0,18.0,62.0,295.0,-27.0,-934.0,1195,1227.2466253866198,-100.50121333257805,
30,0.8199818134307861,0.02643585205078125,37.82741702741703,36.58617728907993,101424.75,262.0,-15.0,-904.0,-5.375,16.25,56.6875,4.375,-4.25,1.5,37.0,17.375,178.25,0.31365966796875,0.93719482421875,0.0343017578125,-0.14874267578125,-44.0,13.0,42.0,294.0,-28.0,-934.0,1181,1217.997300309296,-125.4388996915279,
31,0.8475630283355713,0.027581214904785156,36.256560976453095,36.57545098548863,101424.75,270.0,-25.0,-883.0,-6.5,16.25,57.1875,3.125,-3.6875,0.6875,37.0,17.25,178.0625,0.31396484375,0.93731689453125,0.0325927734375,-0.14752197265625,-21.0,5.0,52.0,291.0,-30.0,-935.0,1148,1203.9978402474367,-163.6522374593972,
32,0.8787457942962646,0.03118276596069336,32.068996100619316,36.41553701617076,101424.75,250.0,-24.0,-866.0,-6.5,16.25,57.1875,3.3125,1.0625,-0.8125,37.0,17.1875,178.0,0.31378173828125,0.93743896484375,0.03173828125,-0.14752197265625,-40.0,7.0,69.0,290.0,-32.0,-935.0,1148,1192.7982721979492,-183.2029041242208,
33,0.907538890838623,0.0287930965423584,34.73054725214669,36.36207806974082,101424.75,230.0,-21.0,-867.0,-4.25,18.0625,57.5,4.6875,1.125,0.5,36.9375,17.25,177.875,0.3135986328125,0.93743896484375,0.03125,-0.14788818359375,-53.0,15.0,76.0,291.0,-33.0,-935.0,1158,1185.8386177583593,-189.0538744490778,
34,0.9392678737640381,0.03172898292541504,31.516925782042517,36.19840617325473,101424.75,238.0,-21.0,-873.0,-4.25,18.0625,57.5,6.0,-3.0,2.8125,37.0,17.125,177.75,0.3138427734375,0.9375,0.02935791015625,-0.1473388671875,-50.0,15.0,63.0,289.0,-36.0,-936.0,1139,1176.4708942066875,-199.67267179664327,
35,0.9693970680236816,0.030129194259643555,33.190399696132815,36.1049162974619,101424.75,259.0,-37.0,-893.0,-4.5625,17.75,57.5,5.625,-2.5,3.375,37.0625,17.0,177.5625,0.314453125,0.93743896484375,0.027587890625,-0.146728515625,-27.0,2.0,43.0,286.0,-39.0,-936.0,1126,1166.37671536535,-213.20838765180264,
36,0.9949829578399658,0.02558588981628418,39.084042305362715,36.18152423248869,101424.75,259.0,-46.0,-889.0,-4.5625,17.75,57.5,7.3125,-0.125,3.0625,37.0625,16.9375,177.375,0.31475830078125,0.9373779296875,0.0263671875,-0.14691162109375,-26.0,-4.0,47.0,286.0,-42.0,-936.0,1153,1163.7013722922802,-202.34387107154438,
37,1.0242199897766113,0.029237031936645508,34.20319826468454,36.125051619105705,101424.75,266.0,-41.0,-942.0,-4.5625,17.75,56.25,7.25,-2.0625,3.4375,37.125,16.9375,177.125,0.31524658203125,0.93719482421875,0.0242919921875,-0.14727783203125,-19.0,4.0,-5.0,285.0,-46.0,-936.0,1139,1158.7610978338241,-199.006802642843,
38,1.052236795425415,0.02801680564880371,35.692862795823366,36.113544180553724,101428.75,261.0,-45.0,-926.0,-4.25,19.25,57.875,4.6875,-5.0,4.4375,37.25,16.8125,176.9375,0.31610107421875,0.93701171875,0.02252197265625,-0.14678955078125,-22.0,3.0,11.0,283.0,-49.0,-937.0,1102,1147.4088782670594,-219.62544392101807,
39,1.079291820526123,0.027055025100708008,36.96171030252827,36.13480548846247,101428.75,265.0,-44.0,-926.0,-4.25,19.25,57.875,2.5,-11.4375,5.75,37.375,16.5,176.8125,0.31732177734375,0.93695068359375,0.02081298828125,-0.1446533203125,-13.0,6.0,12.0,278.0,-51.0,-938.0,1083,1134.5271026136475,-245.27614551727382,
40,1.1078288555145264,0.02853703498840332,35.04218291796513,36.106660158641716,101428.75,273.0,-47.0,-892.0,-3.5,19.25,58.25,2.3125,-6.25,2.8125,37.5,16.1875,176.6875,0.31829833984375,0.93701171875,0.0194091796875,-0.14263916015625,0.0,6.0,47.0,274.0,-53.0,-940.0,1041,1115.821682090918,-286.29640771704055,
41,1.1348826885223389,0.0270538330078125,36.96333897349126,36.12708204526724,101428.75,238.0,-44.0,-895.0,-3.5,19.25,58.25,6.1875,-0.6875,2.9375,37.5625,16.1875,176.5625,0.3187255859375,0.9368896484375,0.01812744140625,-0.1427001953125,-34.0,11.0,44.0,273.0,-55.0,-940.0,1008,1094.2573456727346,-337.37575462170855,
42,1.1618058681488037,0.026923179626464844,37.14271545464206,36.15061788844456,101428.75,253.0,-40.0,-915.0,-3.875,19.25,55.5,5.6875,-3.8125,4.5,37.625,16.125,176.4375,0.31927490234375,0.93670654296875,0.01690673828125,-0.142578125,-19.0,17.0,24.0,272.0,-58.0,-940.0,1008,1077.0058765381877,-367.71482008343895,
43,1.1900849342346191,0.02827906608581543,35.361846708989894,36.13187493013231,101428.75,277.0,-53.0,-901.0,-3.875,19.25,55.5,4.375,-4.5625,3.9375,37.6875,15.9375,176.25,0.32012939453125,0.93658447265625,0.0152587890625,-0.14190673828125,7.0,7.0,39.0,270.0,-61.0,-940.0,985,1058.6047012305503,-396.01329212448763,
44,1.216566801071167,0.02648186683654785,37.76168825907286,36.16735222534326,101428.75,258.0,-57.0,-888.0,-3.0625,20.0,56.25,3.875,-3.1875,1.5625,37.75,15.875,176.125,0.32049560546875,0.9365234375,0.01397705078125,-0.14129638671875,-9.0,5.0,52.0,268.0,-63.0,-941.0,938,1034.4837609844403,-447.4967055209718,
45,1.2422618865966797,0.025695085525512695,38.91794790903102,36.22424585791867,101428.75,261.0,-61.0,-881.0,-3.0625,20.0,56.25,7.6875,-0.3125,1.25,37.75,15.8125,176.0,0.320556640625,0.9365234375,0.0128173828125,-0.14154052734375,-6.0,3.0,59.0,268.0,-65.0,-941.0,966,1020.7870087875524,-456.05198382101366,
46,1.2691338062286377,0.026871919631958008,37.21356768314864,36.245193197314435,101428.75,265.0,-58.0,-932.0,-3.0625,20.6875,56.6875,13.1875,8.0625,1.0,37.75,16.0,175.625,0.32037353515625,0.936279296875,0.0106201171875,-0.14385986328125,-5.0,12.0,7.0,270.0,-70.0,-939.0,952,1007.0296070300419,-461.6429855836507,
47,1.3004460334777832,0.03131222724914551,31.936405929964288,36.141445927062335,101428.75,279.0,-84.0,-984.0,-2.375,20.6875,55.5,13.125,5.9375,2.25,37.75,16.1875,175.25,0.3203125,0.9359130859375,0.0078125,-0.146484375,5.0,-7.0,-46.0,273.0,-77.0,-938.0,961,997.8236856240336,-444.87909132344856,
48,1.3273589611053467,0.026912927627563477,37.156864308431004,36.16203408912719,101428.75,316.0,-95.0,-991.0,-2.375,20.6875,55.5,11.375,9.3125,0.9375,37.75,16.375,174.875,0.32025146484375,0.93548583984375,0.005615234375,-0.1492919921875,38.0,-12.0,-54.0,277.0,-83.0,-936.0,947,987.6589484992269,-438.1601579988352,
49,1.3577930927276611,0.030434131622314453,32.85784567175872,36.08797265389253,101428.75,308.0,-93.0,-990.0,-3.0625,22.5625,56.6875,11.8125,7.8125,0.0625,37.75,16.6875,174.5,0.31982421875,0.93511962890625,0.0035400390625,-0.1524658203125,26.0,-4.0,-55.0,281.0,-89.0,-935.0,957,981.5271587993815,-414.49188216387165,
50,1.3859889507293701,0.028195858001708984,35.46620216130287,36.07532366956298,101428.75,317.0,-96.0,-980.0,-3.0625,22.5625,56.6875,10.9375,8.125,-0.6875,37.6875,16.875,174.1875,0.3193359375,0.93487548828125,0.00152587890625,-0.1551513671875,32.0,-1.0,-47.0,285.0,-94.0,-933.0,933,971.8217270395053,-407.4641744333344,
51,1.4151458740234375,0.029156923294067383,34.297171547022316,36.03868755593414,101428.75,304.0,-102.0,-993.0,-3.0625,23.0,55.5,10.1875,9.5625,-1.9375,37.625,17.0625,174.0,0.31878662109375,0.9346923828125,0.00048828125,-0.1572265625,15.0,-4.0,-60.0,288.0,-97.0,-932.0,947,966.8573816316042,-383.74405759734657,
52,1.4407508373260498,0.025604963302612305,39.05492806927697,36.092292055515294,101424.0,318.0,-118.0,-1032.0,-3.0625,23.0,55.5,9.0,3.875,0.125,37.5625,17.25,173.75,0.31829833984375,0.9344482421875,-0.001220703125,-0.1595458984375,26.0,-16.0,-102.0,291.0,-101.0,-930.0,905,954.4859053052834,-393.68636364113416,
53,1.4707310199737549,0.029980182647705078,33.355367168736976,36.036501087021186,101424.0,343.0,-139.0,-1053.0,-3.5,23.6875,55.875,4.8125,-0.375,0.125,37.5625,17.3125,173.5625,0.31817626953125,0.93438720703125,-0.002685546875,-0.16021728515625,51.0,-34.0,-123.0,291.0,-104.0,-930.0,900,943.5887242442268,-390.6656748165957,
54,1.4990270137786865,0.02829599380493164,35.34069193306483,36.02336682637826,101424.0,346.0,-143.0,-1038.0,-3.5,23.6875,55.875,1.625,2.25,0.0625,37.5625,17.3125,173.5,0.318115234375,0.934326171875,-0.00299072265625,-0.1607666015625,68.0,-30.0,-102.0,292.0,-105.0,-929.0,897,934.2709793953815,-384.52866235633064,
55,1.523737907409668,0.024710893630981445,40.46798205412707,36.09544642326264,101424.0,355.0,-133.0,-1027.0,-4.25,25.1875,55.0625,-1.25,2.625,-1.75,37.5625,17.4375,173.5,0.31787109375,0.93426513671875,-0.00274658203125,-0.1614990234375,61.0,-30.0,-107.0,293.0,-105.0,-929.0,888,925.0167835163053,-383.52565939668074,
56,1.5494399070739746,0.02570199966430664,38.907478525444795,36.14209221301953,101424.0,350.0,-133.0,-1024.0,-4.25,25.1875,55.0625,-1.75,3.5625,-2.3125,37.5,17.5,173.5,0.3175048828125,0.934326171875,-0.0023193359375,-0.16204833984375,43.0,-23.0,-88.0,295.0,-105.0,-929.0,855,911.0134268130442,-399.65662347863986,
57,1.5777528285980225,0.02831292152404785,35.31956245315908,36.12733183983559,101424.0,343.0,-102.0,-1022.0,-4.25,23.25,54.6875,0.625,0.25,-2.6875,37.4375,17.5,173.5625,0.31689453125,0.93450927734375,-0.00213623046875,-0.16217041015625,47.0,2.0,-93.0,295.0,-104.0,-929.0,817,892.2107414504354,-426.1012231259521,
58,1.6080577373504639,0.030304908752441406,32.99795449538975,36.06835665960876,101424.0,339.0,-94.0,-1028.0,-3.0625,24.5,56.25,2.125,1.6875,-2.9375,37.375,17.5625,173.5,0.31640625,0.93463134765625,-0.0023193359375,-0.1624755859375,43.0,10.0,-99.0,296.0,-105.0,-928.0,817,877.1685931603483,-433.12711329227676,
59,1.63525390625,0.027196168899536133,36.769884894230685,36.08002388772768,101424.0,358.0,-108.0,-1043.0,-3.0625,24.5,56.25,2.6875,-2.5625,-2.4375,37.3125,17.5625,173.5,0.315673828125,0.93487548828125,-0.00274658203125,-0.1624755859375,53.0,3.0,-115.0,296.0,-105.0,-928.0,798,861.3348745282788,-448.0348031179325,
60,1.6608409881591797,0.025587081909179688,39.08222139396198,36.12627604193583,101424.0,365.0,-108.0,-1051.0,-3.875,23.25,55.5,3.75,-1.0625,-4.1875,37.1875,17.5,173.4375,0.3145751953125,0.9351806640625,-0.00341796875,-0.16265869140625,51.0,0.0,-137.0,296.0,-106.0,-928.0,817,852.467899622623,-437.88543044189356,
61,1.6865668296813965,0.025725841522216797,38.87142036292191,36.16814876616736,101424.0,329.0,-101.0,-1116.0,-3.875,23.25,55.5,4.0,-2.0,-2.125,37.0625,17.5625,173.3125,0.31365966796875,0.93548583984375,-0.00445556640625,-0.16278076171875,33.0,4.0,-194.0,295.0,-108.0,-928.0,789,839.7743196980985,-443.4386355133583,
62,1.7106199264526367,0.024053096771240234,41.574688261998695,36.2441703392122,101424.0,343.0,-119.0,-1119.0,-3.5,23.6875,55.5,3.875,-1.375,-1.625,37.0,17.5,173.3125,0.3134765625,0.935546875,-0.0047607421875,-0.16278076171875,48.0,-10.0,-190.0,295.0,-108.0,-928.0,733,818.4194557584789,-487.8769530787306,
63,1.7361879348754883,0.025568008422851562,39.11137635210742,36.28639430933384,101424.0,372.0,-127.0,-1124.0,-3.5,23.6875,55.5,6.25,5.125,-3.0625,36.875,17.625,173.125,0.31243896484375,0.9356689453125,-0.006103515625,-0.16400146484375,73.0,-12.0,-198.0,297.0,-111.0,-927.0,742,803.1355646067831,-498.86665966671944,
64,1.7605650424957275,0.024377107620239258,41.022093989926155,36.35196567874334,101424.0,372.0,-127.0,-1129.0,-3.0625,24.0625,54.75,7.25,5.625,-3.75,36.875,17.6875,173.0625,0.31201171875,0.9356689453125,-0.0064697265625,-0.1646728515625,73.0,-14.0,-201.0,298.0,-112.0,-927.0,728,788.1084516854265,-510.62435756575974,
65,1.787895679473877,0.027330636978149414,36.58897525145464,36.35558872155646,101424.0,368.0,-133.0,-1148.0,-3.0625,24.0625,54.75,9.5,6.75,-4.0,36.625,17.9375,172.75,0.3101806640625,0.93572998046875,-0.0084228515625,-0.1676025390625,70.0,-21.0,-234.0,302.0,-117.0,-925.0,761,782.6867613483413,-479.39933116565004,
66,1.8145618438720703,0.02666616439819336,37.50070632834433,36.37241696825468,101425.75,389.0,-139.0,-1152.0,-3.0625,24.0625,54.25,10.375,6.5625,-3.8125,36.625,18.0,172.625,0.30975341796875,0.93572998046875,-0.00897216796875,-0.16839599609375,77.0,-23.0,-228.0,303.0,-118.0,-924.0,719,769.9494090786732,-479.2253687356345,
67,1.8400869369506836,0.02552509307861328,39.17713431720531,36.411323103586426,101425.75,414.0,-146.0,-1176.0,-3.0625,24.0625,54.25,15.0625,3.5,-3.375,36.375,18.1875,172.1875,0.30792236328125,0.935791015625,-0.01239013671875,-0.1712646484375,119.0,-22.0,-266.0,306.0,-126.0,-922.0,709,757.7595272629385,-479.05929558266064,
68,1.8668859004974365,0.02679896354675293,37.31487593747498,36.424293515678286,101425.75,470.0,-172.0,-1248.0,-4.5625,25.1875,54.25,15.375,7.5625,-6.6875,36.1875,18.375,171.75,0.3060302734375,0.9359130859375,-0.01544189453125,-0.17376708984375,171.0,-48.0,-339.0,309.0,-132.0,-920.0,714,749.0076218103509,-463.81099264237633,
69,1.8988239765167236,0.03193807601928711,31.3105898863823,36.338281406461,101425.75,491.0,-199.0,-1277.0,-4.5625,25.1875,54.25,16.6875,14.25,-10.125,35.9375,18.625,171.5,0.3040771484375,0.93597412109375,-0.01708984375,-0.17657470703125,177.0,-62.0,-358.0,314.0,-136.0,-918.0,719,743.0060974482808,-436.22102017752957,
70,1.9260988235473633,0.02727484703063965,36.663816991407266,36.34289120797995,101425.75,513.0,-241.0,-1402.0,-4.5625,25.5625,53.5,16.25,0.875,-11.25,35.4375,19.0625,171.0,0.2994384765625,0.93646240234375,-0.0208740234375,-0.18133544921875,198.0,-116.0,-513.0,320.0,-144.0,-915.0,747,743.8048779586246,-389.6702839150218,
71,1.9493529796600342,0.0232541561126709,43.003065566207006,36.42234153630932,101425.75,556.0,-303.0,-1481.0,-4.5625,25.5625,53.5,14.5625,-5.875,-9.9375,35.3125,19.0,170.875,0.2984619140625,0.93682861328125,-0.02203369140625,-0.18121337890625,236.0,-156.0,-566.0,320.0,-146.0,-915.0,784,751.8439023668998,-316.1329861517801,
72,1.9787979125976562,0.02944493293762207,33.961700714973965,36.38572667861894,101425.75,621.0,-355.0,-1554.0,-6.0625,27.1875,54.25,5.5625,-10.125,-8.5,34.875,18.625,170.625,0.2950439453125,0.9383544921875,-0.02587890625,-0.1783447265625,314.0,-206.0,-625.0,313.0,-150.0,-916.0,902,781.8751218935198,-182.52855856972695,
73,2.007952928543091,0.02915501594543457,34.29941530032301,36.35543391595667,101425.75,634.0,-365.0,-1493.0,-6.0625,26.6875,53.1875,2.75,-10.375,-12.375,34.625,18.4375,170.625,0.29315185546875,0.93914794921875,-0.02655029296875,-0.17706298828125,324.0,-214.0,-575.0,310.0,-150.0,-917.0,990,823.5000975148159,-21.504470142688547,
74,2.035201072692871,0.027248144149780273,36.69974712784481,36.360043728793386,101425.75,556.0,-347.0,-1398.0,-6.0625,26.6875,53.1875,14.4375,0.1875,-16.5,33.9375,18.375,170.5625,0.28759765625,0.94085693359375,-0.028564453125,-0.1767578125,217.0,-185.0,-479.0,310.0,-152.0,-917.0,985,855.8000780118527,99.18608851913733,
75,2.0618057250976562,0.026604652404785156,37.58741083270603,36.375881144887046,101425.75,491.0,-326.0,-1458.0,-6.0625,27.875,54.0,21.4375,0.0,-15.125,33.8125,18.4375,170.375,0.28607177734375,0.941162109375,-0.030029296875,-0.17730712890625,175.0,-167.0,-491.0,310.0,-154.0,-917.0,1008,886.2400624094822,203.68349959670962,
76,2.0904767513275146,0.0286710262298584,34.878416697850405,36.35534332143983,101425.75,671.0,-322.0,-1755.0,-6.0625,27.875,54.0,33.5625,-23.0,4.3125,33.4375,18.125,169.1875,0.28302001953125,0.941650390625,-0.04095458984375,-0.177490234375,366.0,-148.0,-839.0,305.0,-174.0,-915.0,1060,920.9920499275859,304.5245798105302,
77,2.1185836791992188,0.0281069278717041,35.57841698546938,36.345035957750994,101425.75,729.0,-399.0,-1724.0,-6.5,26.25,53.5,16.4375,-43.9375,3.4375,33.375,16.9375,168.5625,0.28265380859375,0.94287109375,-0.04925537109375,-0.16943359375,437.0,-242.0,-581.0,285.0,-185.0,-919.0,1112,959.1936399420687,409.98733173379844,
78,2.1459457874298096,0.02736210823059082,36.54689147388141,36.34760973781182,101425.75,655.0,-438.0,-1221.0,-6.5,26.25,53.5,22.5,-27.5625,-1.0,33.25,16.3125,168.25,0.2818603515625,0.943603515625,-0.05389404296875,-0.165283203125,379.0,-246.0,-299.0,276.0,-191.0,-921.0,1200,1007.354911953655,545.0030767055714,
79,2.171355962753296,0.025410175323486328,39.35431327290811,36.38279552276974,101425.75,466.0,-486.0,-1199.0,-5.0,29.0,53.5,46.625,-1.125,-3.625,33.0,16.375,166.9375,0.27935791015625,0.9429931640625,-0.06463623046875,-0.16900634765625,113.0,-310.0,-434.0,277.0,-212.0,-916.0,1219,1049.683929562924,657.0857109879761,
80,2.2006237506866455,0.02926778793334961,34.16725590185568,36.35332935720527,101424.5,396.0,-364.0,-1865.0,-5.75,28.875,52.25,19.375,46.4375,16.4375,33.0625,17.6875,165.5625,0.27947998046875,0.9398193359375,-0.0714111328125,-0.18328857421875,98.0,-132.0,-960.0,298.0,-232.0,-907.0,1308,1101.3471436503391,767.8961655328852,
81,2.226627826690674,0.02600407600402832,38.455509814887826,36.37788005209037,101424.5,255.0,-220.0,-1493.0,-5.75,28.875,52.25,-41.875,15.0625,14.8125,33.75,18.0,166.5,0.28497314453125,0.93865966796875,-0.0621337890625,-0.1839599609375,-59.0,130.0,38.0,304.0,-217.0,-906.0,1341,1149.2777149202714,875.4260043700026,
82,2.2548727989196777,0.028244972229003906,35.404531181416075,36.36568769612488,101424.5,279.0,71.0,-370.0,-6.75,29.6875,50.75,-65.625,-4.6875,8.25,34.125,17.875,167.6875,0.28839111328125,0.93902587890625,-0.0523681640625,-0.17974853515625,-22.0,270.0,541.0,301.0,-198.0,-911.0,1400,1199.4221719362172,965.4175031326256,
83,2.2806079387664795,0.025735139846801758,38.85737578862527,36.393804734755285,101424.5,27.0,91.0,35.0,-6.75,29.6875,50.75,-49.5625,27.3125,-10.3125,34.125,18.5,169.1875,0.28863525390625,0.9393310546875,-0.03875732421875,-0.1812744140625,-284.0,305.0,956.0,312.0,-173.0,-913.0,1461,1251.7377375489739,1072.1603120803,
84,2.305776834487915,0.025168895721435547,39.73158024363905,36.43023849645682,101424.5,-416.0,187.0,-123.0,-6.75,26.0625,53.1875,-17.3125,-33.0625,-21.5625,33.8125,18.3125,169.75,0.2861328125,0.94085693359375,-0.03533935546875,-0.1778564453125,-724.0,352.0,792.0,308.0,-165.0,-916.0,1461,1293.590190039179,1131.2306883230378,
85,2.3313989639282227,0.025622129440307617,39.028762317734746,36.458796334361296,101424.5,-491.0,24.0,31.0,-6.75,26.0625,53.1875,-20.1875,-93.6875,-9.9375,33.4375,16.8125,170.3125,0.2841796875,0.9453125,-0.03704833984375,-0.15557861328125,-759.0,179.0,962.0,267.0,-155.0,-930.0,1508,1336.4721520313433,1185.4706097217652,
86,2.357071876525879,0.02567291259765625,38.95156017830609,36.485947185775515,101424.5,-315.0,46.0,201.0,-6.0625,24.5625,53.875,11.4375,-63.9375,20.3125,33.875,14.3125,170.375,0.28814697265625,0.94586181640625,-0.04168701171875,-0.14337158203125,-557.0,204.0,1138.0,242.0,-158.0,-936.0,1480,1365.1777216250746,1178.7362208978666,
87,2.3815128803253174,0.024441003799438477,40.91484982392477,36.53140015271121,101424.5,-146.0,108.0,-200.0,-6.0625,24.5625,53.875,36.3125,-25.0,31.9375,34.3125,13.5625,169.6875,0.294189453125,0.9442138671875,-0.053466796875,-0.137939453125,-370.0,287.0,737.0,224.0,-178.0,-937.0,1429,1377.9421773000597,1113.0881775106961,
88,2.4097819328308105,0.028269052505493164,35.37437272811612,36.517827111694274,101424.5,9.0,67.0,-357.0,-2.75,24.1875,53.1875,23.125,-74.875,45.5625,35.25,11.8125,168.4375,0.29974365234375,0.94317626953125,-0.06256103515625,-0.12884521484375,-192.0,259.0,583.0,201.0,-191.0,-940.0,1513,1404.9537418400478,1097.3310749603368,
89,2.4333508014678955,0.02356886863708496,42.428850336351225,36.575079904759974,101424.5,323.0,-82.0,-147.0,-2.75,24.1875,53.1875,-24.5625,-96.125,38.75,36.3125,9.8125,168.4375,0.30926513671875,0.9427490234375,-0.06854248046875,-0.104248046875,172.0,107.0,802.0,151.0,-189.0,-950.0,1565,1436.9629934720383,1123.4095421515365,
90,2.4612069129943848,0.027856111526489258,35.89876494603593,36.56742532487976,101424.5,322.0,-103.0,-63.0,-2.75,24.1875,53.1875,-29.875,-82.5,30.75,36.5625,8.0,168.9375,0.31146240234375,0.94281005859375,-0.068603515625,-0.0966796875,185.0,82.0,889.0,136.0,-185.0,-953.0,1691,1487.7703947776308,1193.4608836352213,
91,2.486724853515625,0.025517940521240234,39.188115481640665,36.594317972633,101424.5,7.0,-103.0,-51.0,0.5625,24.875,52.25,-32.1875,-23.5,17.6875,37.1875,6.4375,170.0625,0.31756591796875,0.94268798828125,-0.0631103515625,-0.0810546875,-179.0,109.0,894.0,105.0,-161.0,-961.0,1710,1532.2163158221047,1248.2899839295715,
92,2.514565944671631,0.02784109115600586,35.91813246099303,36.58683129585372,101424.5,-23.0,-17.0,-1.0,4.25,23.0625,53.0,-41.875,-60.9375,31.5,37.9375,5.0,171.1875,0.32403564453125,0.94189453125,-0.0579833984375,-0.066650390625,-109.0,132.0,963.0,86.0,-149.0,-963.0,1762,1578.173052657684,1288.5290016501476,
93,2.5393218994140625,0.02475595474243164,40.39432170579964,36.62395067811582,101424.5,105.0,36.0,94.0,4.25,23.0625,53.0,-34.8125,-66.1875,29.125,38.75,2.875,172.25,0.331298828125,0.9407958984375,-0.05499267578125,-0.04638671875,55.0,168.0,1065.0,49.0,-131.0,-970.0,1743,1611.1384421261473,1292.8375562197418,
94,2.5651419162750244,0.025820016860961914,38.729641633655596,36.64514598728412,101421.0,0.0,56.0,28.0,6.875,21.875,53.0625,-24.9375,-43.875,23.625,39.1875,1.875,172.75,0.33660888671875,0.9395751953125,-0.0531005859375,-0.0328369140625,-27.0,183.0,981.0,25.0,-126.0,-971.0,1682,1625.310753700918,1218.4426554389054,
95,2.5901148319244385,0.024972915649414062,40.04338195982586,36.67791050384265,101421.0,-15.0,69.0,-50.0,6.875,21.875,53.0625,-19.0,-42.5,20.625,39.75,0.5625,173.3125,0.33966064453125,0.93878173828125,-0.05267333984375,-0.02471923828125,-25.0,182.0,923.0,10.0,-113.0,-974.0,1719,1644.0486029607343,1171.6310753966616,
96,2.6142399311065674,0.024125099182128906,41.45060679131913,36.72195457567075,101421.0,-100.0,69.0,-125.0,10.25,20.5,53.0,-27.0,-42.0,20.0625,40.125,-0.1875,173.8125,0.34259033203125,0.93792724609375,-0.0511474609375,-0.0166015625,-96.0,174.0,849.0,-3.0,-105.0,-974.0,1593,1633.8388823685877,1012.1480564855652,
97,2.6416399478912354,0.02740001678466797,36.496328008074904,36.7196142977142,101421.0,-91.0,42.0,-6.0,10.25,20.5,53.0,-36.9375,-42.5,24.625,40.6875,-1.5625,174.8125,0.3475341796875,0.93646240234375,-0.04693603515625,-0.00238037109375,-63.0,130.0,969.0,-27.0,-87.0,-976.0,1527,1612.4711058948703,832.948712938207,
98,2.6670689582824707,0.02542901039123535,39.32516384297327,36.74445675492008,101421.0,-96.0,26.0,-1.0,13.25,20.75,53.0,-27.5,-12.5,25.0,41.125,-2.0,175.4375,0.351318359375,0.93524169921875,-0.0433349609375,0.0029296875,-61.0,104.0,975.0,-35.0,-77.0,-976.0,1494,1588.7768847158964,656.4759286449064,
99,2.6928467750549316,0.025777816772460938,38.79304476507584,36.7640672752279,101421.0,-146.0,-11.0,-405.0,13.25,20.75,53.0,-8.9375,28.0,34.25,42.0625,-1.5625,175.875,0.358642578125,0.93267822265625,-0.0382080078125,0.00018310546875,-119.0,57.0,572.0,-27.0,-69.0,-977.0,1438,1558.621507772717,473.84644701396644,
100,2.719085693359375,0.02623891830444336,38.111327166663635,36.77706820503036,101421.0,-41.0,-77.0,-1103.0,15.1875,19.6875,53.875,-15.5625,-16.5625,63.625,43.625,-1.5,176.3125,0.37164306640625,0.927734375,-0.0347900390625,0.0003662109375,-15.0,-13.0,-125.0,-26.0,-63.0,-978.0,1424,1531.6972062181737,323.849715784659,
101,2.746957778930664,0.027872085571289062,35.878190652159034,36.76794771826354,101421.0,506.0,-522.0,-1287.0,15.5,17.875,53.75,-17.0,-69.375,50.4375,45.4375,-3.3125,176.9375,0.385986328125,0.923583984375,-0.034912109375,0.01641845703125,432.0,-309.0,-344.0,-44.0,-55.0,-978.0,1485,1522.3577649745391,257.95651885381716,
102,2.7723228931427,0.025365114212036133,39.42422618879771,36.79225109466704,101421.0,140.0,-571.0,-1034.0,15.5,17.875,53.75,-11.0625,113.25,0.5,45.625,-2.4375,177.1875,0.387939453125,0.92108154296875,-0.0308837890625,0.01043701171875,183.0,-523.0,-55.0,-42.0,-47.0,-978.0,1126,1443.0862119796313,-80.36109659241552,
103,2.8001389503479004,0.027816057205200195,35.95045813369447,36.78388888065818,101421.0,-477.0,699.0,-1440.0,17.75,16.0,53.1875,93.5625,89.0625,-16.5,45.5,2.75,175.6875,0.38641357421875,0.9212646484375,-0.02484130859375,-0.03668212890625,-525.0,771.0,-463.0,47.0,-72.0,-976.0,1252,1404.8689695837052,-209.71772420717372,
104,2.8275530338287354,0.02741408348083496,36.47760103667499,36.78091931636578,101421.0,-141.0,-156.0,-2618.0,17.75,16.0,53.1875,110.125,16.875,-2.875,45.0625,3.1875,172.5,0.38238525390625,0.9212646484375,-0.04913330078125,-0.05096435546875,-197.0,-29.0,-1647.0,55.0,-127.0,-970.0,1313,1386.4951756669643,-255.76914418895223,
105,2.852954864501953,0.025401830673217773,39.3672413954929,36.803947130909165,101421.0,288.0,-337.0,-3025.0,11.75,21.5625,55.875,87.375,38.625,1.8125,45.0625,3.9375,170.625,0.3819580078125,0.919921875,-0.06195068359375,-0.0633544921875,220.0,-177.0,-2060.0,67.0,-159.0,-965.0,1308,1370.7961405335714,-291.99500034731744,
106,2.878873825073242,0.025918960571289062,38.581794098167634,36.819953370934286,101421.0,402.0,-467.0,-2551.0,11.75,21.5625,55.875,-3.3125,6.5625,-7.1875,44.9375,4.125,169.9375,0.3804931640625,0.919921875,-0.06683349609375,-0.0672607421875,330.0,-296.0,-1588.0,71.0,-170.0,-963.0,1289,1354.4369124268571,-325.91233735440625,
107,2.904744863510132,0.02587103843688965,38.65326095971837,36.836281679727215,101421.0,155.0,-213.0,-1753.0,11.0625,24.5625,53.375,-29.5,11.1875,-8.375,44.8125,4.4375,170.4375,0.37982177734375,0.92047119140625,-0.061767578125,-0.0679931640625,78.0,-51.0,-788.0,76.0,-162.0,-964.0,1303,1344.149529941486,-333.0851915989144,
108,2.931694746017456,0.02694988250732422,37.105913160409074,36.83876029273238,101421.0,235.0,-233.0,-922.0,11.0625,24.5625,53.375,-46.25,-16.8125,0.0625,44.6875,4.0625,171.6875,0.379150390625,0.92181396484375,-0.0531005859375,-0.060791015625,165.0,-91.0,45.0,70.0,-141.0,-967.0,1294,1334.1196239531887,-336.99355449990554,
109,2.9596168994903564,0.02792215347290039,35.813856584182936,36.82909096064755,101420.75,191.0,-122.0,-1063.0,11.0,26.0625,54.1875,-22.5,19.25,-6.875,44.625,4.625,172.625,0.3790283203125,0.9222412109375,-0.04388427734375,-0.06195068359375,112.0,2.0,-94.0,79.0,-125.0,-969.0,1280,1323.295699162551,-342.0588480629029,
110,2.987947940826416,0.02833104133605957,35.29697296114585,36.814563766989814,101420.75,28.0,-94.0,-955.0,11.0,26.0625,54.1875,-15.875,-3.125,-17.1875,44.25,4.5625,173.125,0.37567138671875,0.9239501953125,-0.04010009765625,-0.05938720703125,-49.0,21.0,15.0,78.0,-116.0,-970.0,1223,1303.236559330041,-378.6556548858076,
111,3.013720750808716,0.025772809982299805,38.80058094894495,36.83154783674424,101420.75,119.0,-138.0,-1079.0,10.1875,22.25,53.0625,-5.8125,14.875,-13.5,43.9375,4.8125,173.375,0.37359619140625,0.92486572265625,-0.03759765625,-0.0606689453125,37.0,-25.0,-109.0,82.0,-112.0,-970.0,1303,1303.189247464033,-340.97366218591554,
112,3.0424909591674805,0.02877020835876465,34.75817719253176,36.81194176190639,101420.75,40.0,-177.0,-1179.0,10.1875,22.25,53.0625,8.875,35.25,-18.875,43.5,5.625,173.1875,0.36968994140625,0.92596435546875,-0.03631591796875,-0.0675048828125,-55.0,-62.0,-210.0,96.0,-114.0,-969.0,1252,1292.9513979712267,-342.46119464146756,
113,3.068135976791382,0.025645017623901367,38.993929139202145,36.83017990557706,101420.75,-83.0,-178.0,-1197.0,11.0,21.875,55.0625,0.0625,16.375,-10.25,43.125,6.5,173.0625,0.36651611328125,0.9267578125,-0.03466796875,-0.07489013671875,-195.0,-61.0,-230.0,111.0,-116.0,-967.0,1280,1290.3611183769815,-318.31559307219266,
114,3.0963027477264404,0.028166770935058594,35.5028271542238,36.81810510413045,101420.75,120.0,-168.0,-1080.0,8.375,21.5625,55.875,-5.125,-12.5,-0.375,43.125,6.375,173.25,0.3663330078125,0.927001953125,-0.0338134765625,-0.0732421875,74.0,-30.0,-79.0,108.0,-114.0,-967.0,1252,1282.6888947015852,-313.72259686858706,
115,3.1242640018463135,0.027961254119873047,35.76377496205597,36.808669156012314,101420.75,167.0,-159.0,-1028.0,8.375,21.5625,55.875,2.125,3.5,-6.3125,43.0,6.3125,173.25,0.365478515625,0.92730712890625,-0.0338134765625,-0.07305908203125,74.0,-34.0,-62.0,108.0,-113.0,-967.0,1242,1274.5511157612684,-311.4541066529733,
116,3.151092052459717,0.02682805061340332,37.274419017996,36.81263449903069,101420.75,93.0,-142.0,-1016.0,8.6875,20.5,55.375,0.5625,28.5,-9.25,42.9375,6.9375,173.1875,0.3651123046875,0.9271240234375,-0.03216552734375,-0.07818603515625,-25.0,-28.0,-49.0,119.0,-114.0,-966.0,1238,1267.2408926090147,-307.5571280768919,
117,3.1839449405670166,0.032852888107299805,30.4387241917341,36.74686660227357,101420.75,72.0,-144.0,-883.0,8.6875,20.5,55.375,-7.25,9.4375,-3.6875,42.8125,7.5625,173.4375,0.3638916015625,0.92730712890625,-0.028564453125,-0.08270263671875,-57.0,-33.0,82.0,130.0,-110.0,-965.0,1238,1261.392714087212,-294.6025245741205,
118,3.214431047439575,0.030486106872558594,32.8018268839741,36.70945130211824,101420.75,157.0,-152.0,-837.0,7.5625,22.25,55.375,2.3125,9.9375,1.25,42.8125,7.6875,173.4375,0.36383056640625,0.92730712890625,-0.02789306640625,-0.08343505859375,25.0,-41.0,127.0,131.0,-110.0,-965.0,1270,1263.1141712697695,-259.4955780676659,
119,3.24287486076355,0.02844381332397461,35.1570300581717,36.69583474830136,101420.75,173.0,-105.0,-914.0,7.5625,22.25,55.375,9.4375,20.25,-2.125,42.8125,8.25,173.25,0.36358642578125,0.92694091796875,-0.02783203125,-0.08837890625,32.0,7.0,49.0,140.0,-113.0,-963.0,1280,1266.4913370158156,-221.67290849638226,
120,3.268645763397217,0.025770902633666992,38.80345264638129,36.71245178776419,101420.75,125.0,-59.0,-1019.0,6.875,22.25,55.375,-3.25,9.8125,-1.3125,42.75,8.75,173.1875,0.3631591796875,0.92669677734375,-0.0267333984375,-0.0926513671875,-23.0,55.0,-57.0,149.0,-114.0,-962.0,1214,1255.9930696126526,-240.24251985151253,
121,3.2932229042053223,0.02457714080810547,40.688215435955144,36.742122692480834,101420.75,172.0,-42.0,-1021.0,6.875,22.25,55.375,-9.4375,2.375,0.75,42.8125,8.8125,173.3125,0.36334228515625,0.92669677734375,-0.02532958984375,-0.0926513671875,22.0,70.0,-58.0,150.0,-112.0,-962.0,1214,1247.594455690122,-250.39072913069487,
122,3.3178229331970215,0.02460002899169922,40.65035859662726,36.77110034393608,101426.25,314.0,-90.0,-1018.0,6.1875,21.875,55.0,-9.375,11.6875,-7.6875,42.6875,9.0,173.625,0.3626708984375,0.92694091796875,-0.02215576171875,-0.093505859375,160.0,15.0,-55.0,154.0,-106.0,-962.0,1233,1244.6755645520975,-237.2170533641467,
123,3.343489646911621,0.02566671371459961,38.960967544169286,36.7879111315972,101426.25,310.0,-103.0,-1091.0,6.1875,21.875,55.0,-3.625,20.375,-12.8125,42.5,9.4375,173.75,0.3609619140625,0.9273681640625,-0.01995849609375,-0.09625244140625,149.0,0.0,-130.0,160.0,-104.0,-961.0,1219,1239.5404516416781,-233.5022447715814,
124,3.372314929962158,0.02882528305053711,34.69176688557675,36.76999407685552,101426.25,309.0,-96.0,-1149.0,5.75,21.5625,55.0,-6.1875,13.8125,-15.625,42.125,10.0,173.9375,0.3577880859375,0.92822265625,-0.016845703125,-0.100341796875,151.0,-3.0,-188.0,170.0,-101.0,-960.0,1181,1227.8323613133425,-250.7694543290128,
125,3.4009809494018555,0.028666019439697266,34.884508541677064,36.754101789951,101426.25,350.0,-142.0,-1098.0,5.375,21.875,55.0,-3.75,9.4375,-19.1875,41.625,10.25,174.25,0.353759765625,0.9296875,-0.01434326171875,-0.10162353515625,175.0,-45.0,-138.0,175.0,-96.0,-960.0,1209,1224.065889050674,-238.83166227801627,
126,3.434717893600464,0.0337369441986084,29.641095948495792,36.684235475280836,101426.25,247.0,-169.0,-1146.0,5.375,21.875,55.0,11.0625,13.0625,-22.75,41.0,10.6875,174.1875,0.3485107421875,0.9312744140625,-0.01385498046875,-0.10528564453125,64.0,-83.0,-220.0,182.0,-97.0,-958.0,1177,1214.6527112405392,-242.8501867152604,
127,3.4630677700042725,0.028349876403808594,35.273522387055536,36.67268688762719,101426.25,214.0,-184.0,-1270.0,4.25,21.1875,55.0,19.125,16.1875,-19.25,40.625,11.0625,173.9375,0.3450927734375,0.93212890625,-0.0152587890625,-0.10888671875,26.0,-83.0,-313.0,188.0,-101.0,-956.0,1167,1205.1221689924314,-252.18274757867545,
128,3.4898829460144043,0.026815176010131836,37.29231535240195,36.677447920189266,101426.25,206.0,-222.0,-1422.0,4.25,21.1875,55.0,14.5,12.5,-11.875,40.0,11.75,173.25,0.33984375,0.93310546875,-0.01898193359375,-0.11627197265625,24.0,-119.0,-461.0,200.0,-112.0,-953.0,1186,1201.297735193945,-241.22667194656157,
129,3.517584800720215,0.027701854705810547,36.09866597813925,36.672889868522184,101426.25,223.0,-205.0,-1338.0,2.375,22.25,54.1875,-2.4375,1.0625,-17.8125,39.4375,11.875,173.25,0.33551025390625,0.93450927734375,-0.01898193359375,-0.11749267578125,-33.0,-36.0,-200.0,202.0,-112.0,-952.0,1205,1202.0381881551561,-214.43106833997714,
130,3.5433359146118164,0.025751113891601562,38.833271609510405,36.68859039412917,101426.25,54.0,-87.0,-893.0,2.375,22.25,54.1875,-4.5,2.8125,-22.5,39.0625,12.0,173.4375,0.3321533203125,0.9356689453125,-0.0177001953125,-0.11767578125,-150.0,21.0,58.0,204.0,-109.0,-952.0,1256,1212.8305505241249,-151.07768758773727,
131,3.571837902069092,0.02850198745727539,35.08527261472571,36.675796492364455,101426.25,28.0,-157.0,-726.0,2.0625,21.875,55.375,20.4375,-3.5,-17.1875,38.5,12.0,173.25,0.32763671875,0.93719482421875,-0.01959228515625,-0.11810302734375,-136.0,-87.0,187.0,204.0,-111.0,-952.0,1317,1233.6644404193,-62.87364816922357,
132,3.595472812652588,0.023634910583496094,42.31029334624541,36.71283496720866,101426.25,235.0,-172.0,-975.0,2.0625,21.875,55.375,39.8125,2.5,-16.375,38.125,12.0625,172.625,0.324462890625,0.9378662109375,-0.0247802734375,-0.12030029296875,29.0,-50.0,-24.0,205.0,-122.0,-951.0,1327,1252.3315523354402,22.394814757607,
133,3.6239659786224365,0.028493165969848633,35.0961350191199,36.700123782772586,101426.25,172.0,-131.0,-921.0,0.875,23.0625,53.75,29.0625,10.75,-37.125,37.0625,12.375,171.8125,0.3153076171875,0.94012451171875,-0.03192138671875,-0.125244140625,-38.0,5.0,26.0,211.0,-136.0,-947.0,1396,1281.0652418683521,120.99947802630138,
134,3.650268793106079,0.026302814483642578,38.018745127898335,36.70962539884001,101426.25,1.0,-181.0,-632.0,0.875,23.0625,53.75,19.3125,6.0,-45.6875,36.1875,12.6875,171.5625,0.30792236328125,0.942138671875,-0.03387451171875,-0.1279296875,-214.0,-41.0,313.0,215.0,-139.0,-946.0,1424,1309.6521934946818,217.58353301016987,
135,3.6781697273254395,0.02790093421936035,35.84109378337962,36.70303711029793,101426.25,-33.0,-144.0,-687.0,0.5625,24.5625,53.375,39.1875,-1.375,-43.625,34.1875,12.875,170.75,0.29150390625,0.9466552734375,-0.04229736328125,-0.13079833984375,-265.0,17.0,210.0,218.0,-153.0,-943.0,1504,1348.5217547957454,335.1379389001774,
136,3.707702875137329,0.02953314781188965,33.86025784889119,36.68039338102644,101426.5,-72.0,-63.0,-791.0,-0.0625,24.875,52.5625,34.8125,9.1875,-42.6875,33.3125,13.125,170.1875,0.28375244140625,0.94830322265625,-0.04693603515625,-0.134033203125,-295.0,98.0,149.0,223.0,-161.0,-941.0,1368,1352.4174038365963,314.81491311135943,
137,3.7349777221679688,0.02727484703063965,36.663816991407266,36.68027233117694,101426.5,-60.0,-71.0,-687.0,-0.0625,24.875,52.5625,5.0,4.0,-33.625,32.1875,13.5625,170.0,0.2742919921875,0.95050048828125,-0.04876708984375,-0.1375732421875,-291.0,93.0,251.0,230.0,-164.0,-938.0,1088,1299.533923069277,89.4423957280635,
138,3.762075901031494,0.02709817886352539,36.9028488975699,36.681875546998626,101426.5,142.0,-120.0,-563.0,-2.0,26.75,51.75,-9.0625,-15.25,-22.4375,31.5625,13.4375,170.25,0.2691650390625,0.9522705078125,-0.04791259765625,-0.13580322265625,-86.0,40.0,376.0,228.0,-161.0,-940.0,1219,1283.4271384554218,21.05953227217646,
139,3.786029815673828,0.023953914642333984,41.74682989947248,36.713921117195724,101426.5,402.0,-151.0,-573.0,-2.0,26.75,51.75,-15.0625,-35.5625,-22.1875,30.625,12.375,171.0,0.26220703125,0.95587158203125,-0.04522705078125,-0.124755859375,211.0,-1.0,363.0,210.0,-148.0,-946.0,1238,1274.3417107643377,-18.97520139340559,
140,3.8168389797210693,0.03080916404724121,32.45787514606533,36.67956671576202,101426.5,439.0,-114.0,-615.0,-1.5625,26.875,53.0625,-14.0,-17.9375,-30.875,29.75,12.0,171.625,0.25506591796875,0.95855712890625,-0.0419921875,-0.1199951171875,254.0,21.0,314.0,204.0,-139.0,-948.0,1256,1270.67336861147,-28.98434041314748,
141,3.8432118892669678,0.026372909545898438,37.91769725898604,36.68806302191512,101426.5,470.0,-118.0,-739.0,-1.5625,26.875,53.0625,-6.5625,10.0,-35.75,29.125,12.1875,171.9375,0.24957275390625,0.9599609375,-0.03973388671875,-0.12078857421875,262.0,15.0,209.0,207.0,-133.0,-948.0,1280,1272.538694889176,-19.013018663104404,
142,3.8675429821014404,0.024331092834472656,41.09967467565555,36.71581690421031,101426.5,452.0,-152.0,-974.0,-0.5,26.1875,52.5625,-5.375,17.625,-36.875,28.125,12.8125,172.3125,0.2410888671875,0.9617919921875,-0.03619384765625,-0.1246337890625,257.0,-12.0,-107.0,217.0,-127.0,-947.0,1280,1274.0309559113407,-10.978572542580876,
143,3.895218849182129,0.027675867080688477,36.13256260714501,36.711672831945094,101426.5,500.0,-82.0,-1154.0,-0.5,26.1875,52.5625,-11.5625,1.1875,-39.5625,27.375,13.0,172.6875,0.235107421875,0.96331787109375,-0.03350830078125,-0.125,280.0,38.0,-206.0,220.0,-120.0,-947.0,1284,1276.0247647290726,-2.6765730949853657,
144,3.922661781311035,0.02744293212890625,36.43925493466778,36.709766997008906,101426.5,418.0,18.0,-1139.0,-2.375,24.875,53.75,-17.375,4.625,-46.5625,26.5625,13.125,173.1875,0.2281494140625,0.965087890625,-0.02984619140625,-0.12506103515625,192.0,126.0,-191.0,225.0,-107.0,-948.0,1252,1271.2198117832581,-19.917806319648292,
145,3.950265884399414,0.027604103088378906,36.22649853169805,36.706389960392585,101426.5,374.0,36.0,-1151.0,-2.375,24.875,53.75,-13.1875,18.625,-54.125,25.125,13.75,174.0,0.21588134765625,0.96771240234375,-0.0235595703125,-0.12811279296875,141.0,134.0,-204.0,233.0,-98.0,-947.0,1209,1258.7758494266066,-63.0061440918579,
146,3.97804594039917,0.02778005599975586,35.99704766645497,36.70143638043302,101426.5,409.0,-8.0,-1197.0,-3.0625,24.6875,53.75,0.8125,6.3125,-53.3125,23.0625,14.3125,174.5625,0.198486328125,0.97100830078125,-0.0198974609375,-0.13153076171875,173.0,66.0,-269.0,242.0,-89.0,-945.0,1209,1248.8206795412852,-92.54120217162894,
147,4.005955696105957,0.02790975570678711,35.82976542345082,36.695363391785214,101426.5,387.0,-86.0,-1286.0,-5.5,25.0,53.0,14.75,5.75,-53.8125,21.875,14.5,174.625,0.188232421875,0.97283935546875,-0.02081298828125,-0.13299560546875,141.0,2.0,-341.0,246.0,-88.0,-945.0,1214,1241.8565436330282,-108.23941755145412,
148,4.032995700836182,0.02704000473022461,36.982242051245876,36.697286825600735,101426.5,378.0,-85.0,-1301.0,-5.5,25.0,53.0,16.4375,0.9375,-52.875,20.8125,14.625,174.5625,0.17462158203125,0.97515869140625,-0.02288818359375,-0.1343994140625,129.0,4.0,-293.0,249.0,-89.0,-944.0,1172,1227.8852349064227,-149.0845079063094,
149,4.059314966201782,0.026319265365600586,37.99498147493908,36.70570065160926,101426.5,335.0,-68.0,-1137.0,-6.5,24.25,53.375,12.125,-1.0,-53.1875,19.1875,14.75,174.5625,0.16546630859375,0.9766845703125,-0.02386474609375,-0.134765625,85.0,20.0,-193.0,250.0,-89.0,-943.0,1200,1222.308187925138,-155.36603678955595,
150,4.0846028327941895,0.025287866592407227,39.54465657851318,36.723276690622136,101424.25,269.0,-13.0,-974.0,-6.5,24.25,53.375,11.875,6.375,-52.625,17.625,15.0,174.625,0.1519775390625,0.97857666015625,-0.0247802734375,-0.1365966796875,14.0,74.0,-31.0,254.0,-88.0,-942.0,1162,1210.2465503401106,-187.52676471804023,
151,4.1137518882751465,0.02914905548095703,34.30642892196957,36.70615148919755,101424.25,218.0,-29.0,-905.0,-7.1875,24.6875,53.375,15.5625,11.25,-46.25,16.1875,15.4375,174.5625,0.1395263671875,0.97991943359375,-0.02618408203125,-0.1400146484375,-43.0,58.0,34.0,261.0,-88.0,-940.0,1177,1203.5972402720886,-191.58549656910967,
152,4.141974925994873,0.028223037719726562,35.432047036561464,36.69746985817174,101424.25,295.0,-45.0,-930.0,-7.1875,24.6875,53.375,19.125,2.0625,-35.6875,15.0,15.75,174.375,0.129150390625,0.98089599609375,-0.0291748046875,-0.142333984375,28.0,46.0,8.0,266.0,-92.0,-939.0,1200,1202.877792217671,-174.9760986426475,
153,4.173290014266968,0.03131508827209473,31.933488141916328,36.661722400539716,101424.25,311.0,-74.0,-939.0,-9.75,25.375,52.1875,18.1875,9.0625,-33.6875,14.0625,15.8125,174.1875,0.121337890625,0.98175048828125,-0.03173828125,-0.14312744140625,45.0,29.0,14.0,268.0,-95.0,-938.0,1191,1200.5022337741368,-165.06447551708544,
154,4.2006049156188965,0.02731490135192871,36.61005350580883,36.66138641779654,101424.25,317.0,-63.0,-946.0,-10.5625,25.75,51.0,11.75,10.125,-31.9375,12.5625,16.4375,173.9375,0.1083984375,0.982421875,-0.03424072265625,-0.14794921875,32.0,32.0,-28.0,275.0,-98.0,-936.0,1214,1203.2017870193094,-138.6749490906219,
155,4.227937698364258,0.027332782745361328,36.586102824444794,36.660899724224365,101424.25,306.0,-54.0,-873.0,-10.5625,25.75,51.0,4.5,10.0,-32.0,11.9375,16.6875,174.0,0.10296630859375,0.98272705078125,-0.0350341796875,-0.1497802734375,4.0,19.0,101.0,284.0,-96.0,-933.0,1223,1207.1614296154476,-110.32066506452368,
156,4.258069038391113,0.03013134002685547,33.18803608165849,36.63632472688693,101424.25,278.0,-60.0,-794.0,-11.6875,26.1875,51.5,4.25,19.3125,-28.6875,10.9375,17.1875,174.125,0.0946044921875,0.98291015625,-0.034423828125,-0.154052734375,-12.0,34.0,137.0,290.0,-94.0,-931.0,1242,1214.1291436923582,-76.16412393895236,
157,4.285467863082886,0.02739882469177246,36.49791592338952,36.635439820346036,101424.25,341.0,-44.0,-813.0,-11.6875,26.1875,51.5,8.75,6.1875,-25.5,10.1875,17.5625,174.125,0.087890625,0.9830322265625,-0.03521728515625,-0.15704345703125,45.0,49.0,116.0,296.0,-94.0,-930.0,1252,1221.7033149538865,-40.90356495579559,
158,4.314669847488403,0.029201984405517578,34.24424813441975,36.61925606937754,101424.25,309.0,-63.0,-780.0,-12.75,25.5,51.875,8.125,7.8125,-27.375,9.375,17.875,174.125,0.080810546875,0.9832763671875,-0.0360107421875,-0.1591796875,8.0,31.0,147.0,301.0,-94.0,-928.0,1214,1220.1626519631093,-42.08909303498542,
159,4.3417627811431885,0.027092933654785156,36.909993311978596,36.621070292130334,101424.25,302.0,-77.0,-839.0,-12.75,25.5,51.875,11.0625,6.8125,-19.875,8.625,18.1875,174.0625,0.0745849609375,0.9832763671875,-0.03753662109375,-0.16168212890625,-3.0,18.0,87.0,306.0,-96.0,-926.0,1242,1224.5301215704876,-21.759856331626494,
160,4.371090888977051,0.029328107833862305,34.09698319662469,36.60413477182218,101424.25,347.0,-90.0,-858.0,-13.1875,25.5,51.875,8.625,-2.4375,-16.1875,8.3125,18.1875,174.0,0.07159423828125,0.98345947265625,-0.03857421875,-0.161865234375,40.0,6.0,68.0,306.0,-97.0,-926.0,,1224.5301215704876,-21.759856331626494,
161,4.394654035568237,0.023563146591186523,42.439153706832876,36.635420831069446,101424.25,363.0,-118.0,-850.0,-13.1875,25.5,51.875,4.125,2.375,-15.1875,7.8125,18.25,174.0,0.06756591796875,0.98370361328125,-0.03924560546875,-0.162109375,55.0,-20.0,75.0,307.0,-97.0,-926.0,1270,1233.62409725639,19.010192495557785,
162,4.4225218296051025,0.027867794036865234,35.883715757233546,36.63068408516264,101424.25,335.0,-125.0,-906.0,-14.25,25.75,52.1875,7.125,13.8125,-13.5625,7.375,18.5625,173.9375,0.06378173828125,0.98345947265625,-0.03997802734375,-0.16485595703125,22.0,-28.0,17.0,312.0,-97.0,-924.0,1223,1231.4992778051121,9.484531523492038,
163,4.451687812805176,0.029165983200073242,34.28651772649614,36.61532588406903,101424.25,359.0,-108.0,-972.0,-14.5625,25.75,51.75,7.0,11.4375,-8.5625,7.0625,19.0,173.8125,0.06109619140625,0.98297119140625,-0.041259765625,-0.16839599609375,39.0,-8.0,-51.0,319.0,-99.0,-921.0,1247,1234.5994222440897,19.165394097313303,
164,4.479369878768921,0.027682065963745117,36.12447139276701,36.61229245151611,101424.25,367.0,-83.0,-1037.0,-14.5625,25.75,51.75,3.75,8.75,-6.375,6.9375,19.1875,173.75,0.05987548828125,0.98272705078125,-0.04193115234375,-0.17010498046875,45.0,10.0,-105.0,322.0,-100.0,-920.0,1205,1228.6795377952717,-4.136414954399381,
165,4.506041765213013,0.026671886444091797,37.49266112451953,36.617503475847165,101424.25,365.0,-90.0,-1041.0,-15.375,26.1875,50.1875,-1.0625,9.875,-5.6875,6.75,19.5,173.75,0.05828857421875,0.98236083984375,-0.0418701171875,-0.1724853515625,38.0,9.0,-123.0,327.0,-100.0,-918.0,1256,1234.1436302362174,16.763563165183164,
166,4.538428783416748,0.03238701820373535,30.87656892985181,36.57653516709525,101424.25,377.0,-46.0,-1012.0,-15.375,26.1875,50.1875,-7.3125,0.75,-1.8125,6.6875,19.6875,174.0,0.05755615234375,0.98223876953125,-0.0399169921875,-0.17401123046875,41.0,44.0,-124.0,330.0,-97.0,-918.0,1252,1237.714904188974,26.11407548563237,
167,4.568208932876587,0.029780149459838867,33.57941508482311,36.55699694427957,101424.25,375.0,-44.0,-971.0,-16.5,26.875,50.1875,-11.3125,-3.875,0.625,6.625,19.625,174.25,0.0572509765625,0.98248291015625,-0.0374755859375,-0.1732177734375,46.0,46.0,-52.0,329.0,-93.0,-918.0,1191,1228.3719233511792,-7.870515231116901,
168,4.5977747440338135,0.029565811157226562,33.82285013870073,36.53941511989054,101424.25,357.0,-34.0,-930.0,-16.0625,27.5625,49.5,-12.0625,-13.125,1.4375,6.6875,19.3125,174.5,0.0577392578125,0.98284912109375,-0.03570556640625,-0.17144775390625,43.0,53.0,-13.0,326.0,-88.0,-920.0,1219,1226.4975386809435,-13.423166888371263,
169,4.625945806503296,0.028171062469482422,35.497418710540124,36.53306957518063,101424.25,313.0,-26.0,-916.0,-16.0625,27.5625,49.5,-12.6875,-14.625,2.5625,6.75,19.0,174.8125,0.05828857421875,0.9835205078125,-0.032958984375,-0.16778564453125,-6.0,56.0,6.0,319.0,-82.0,-923.0,1200,1221.198030944755,-30.892734706657528,
170,4.652759075164795,0.026813268661499023,37.29496812284929,36.53746030122542,101424.25,309.0,-2.0,-876.0,-15.375,26.5,49.875,-11.1875,-17.3125,5.9375,6.9375,18.5,175.1875,0.059814453125,0.9842529296875,-0.0303955078125,-0.1634521484375,-2.0,75.0,50.0,311.0,-77.0,-926.0,1238,1224.558424755804,-15.270883229662125,
171,4.682353973388672,0.029594898223876953,33.789607669378874,36.52009245175571,101424.25,325.0,22.0,-904.0,-15.375,26.5,49.875,-10.0625,-15.1875,7.9375,7.1875,18.0,175.375,0.06201171875,0.98486328125,-0.02850341796875,-0.1591796875,21.0,97.0,24.0,303.0,-74.0,-929.0,1247,1229.0467398046433,1.4220455529887897,
172,4.711495876312256,0.029141902923583984,34.31484905506013,36.506452412439856,101424.25,281.0,17.0,-876.0,-15.0,25.75,50.25,-12.625,-9.3125,8.3125,7.4375,17.6875,175.6875,0.06414794921875,0.98529052734375,-0.02606201171875,-0.15618896484375,-17.0,87.0,55.0,298.0,-69.0,-931.0,1270,1237.2373918437147,29.3859398360156,
173,4.74173903465271,0.0302431583404541,33.065329643907326,36.484504679762644,101424.25,253.0,31.0,-887.0,-15.0,25.75,50.25,-10.25,-10.0,11.8125,7.75,17.375,175.875,0.06707763671875,0.985595703125,-0.02386474609375,-0.15338134765625,-39.0,98.0,46.0,293.0,-66.0,-933.0,1256,1240.989913474972,38.85518232575524,
174,4.765489816665649,0.023750782012939453,42.10387680941195,36.512511136105104,101424.25,262.0,41.0,-895.0,-14.25,24.6875,53.0625,-9.5625,-10.1875,15.4375,8.0625,17.125,176.0,0.06982421875,0.9857177734375,-0.02276611328125,-0.15142822265625,-27.0,106.0,38.0,289.0,-64.0,-934.0,1275,1247.7919307799775,63.60879395972421,
175,4.792686939239502,0.02719712257385254,36.76859554846458,36.513964341632715,101424.25,299.0,24.0,-907.0,-14.25,24.6875,53.0625,-11.9375,-7.125,19.375,8.625,16.875,176.3125,0.07452392578125,0.98583984375,-0.01959228515625,-0.1490478515625,14.0,84.0,28.0,285.0,-59.0,-936.0,1284,1255.0335446239822,83.87431161858862,
176,4.821319818496704,0.02863287925720215,34.92488446646405,36.50452710579094,101424.25,357.0,10.0,-896.0,-12.375,25.375,53.1875,-13.375,-5.5,18.375,9.375,16.6875,176.5625,0.08111572265625,0.98565673828125,-0.016845703125,-0.147216796875,75.0,66.0,41.0,281.0,-56.0,-937.0,1270,1258.0268356991858,85.94091495432818,
177,4.851318836212158,0.0299990177154541,33.33442479634413,36.48492419809685,101425.75,350.0,10.0,-894.0,-12.75,24.25,53.5,-11.0625,4.0625,13.6875,9.875,16.6875,176.75,0.08544921875,0.98529052734375,-0.014404296875,-0.1470947265625,68.0,63.0,42.0,281.0,-52.0,-937.0,1289,1264.2214685593488,97.99627578070186,
178,4.884495735168457,0.03317689895629883,30.14145479109476,36.44183753061689,101425.75,296.0,-8.0,-924.0,-12.75,24.25,53.5,-9.0625,11.125,9.875,10.375,17.0,177.0,0.08856201171875,0.9847412109375,-0.0123291015625,-0.14996337890625,19.0,48.0,11.0,285.0,-49.0,-936.0,1284,1268.1771748474791,100.1197224276848,
179,4.915326833724976,0.030831098556518555,32.43478328113521,36.41670351844105,101425.75,306.0,-22.0,-927.0,-11.25,23.875,53.5,-10.9375,7.3125,11.75,10.75,17.1875,177.125,0.09271240234375,0.98406982421875,-0.0098876953125,-0.1512451171875,16.0,24.0,8.0,290.0,-46.0,-935.0,1275,1269.5417398779832,94.53368728865789,
180,4.942142009735107,0.026815176010131836,37.29231535240195,36.42145443118252,101425.75,303.0,-25.0,-899.0,-11.25,23.875,53.5,-13.875,3.4375,13.5625,11.1875,17.3125,177.375,0.09649658203125,0.983642578125,-0.00689697265625,-0.1519775390625,11.0,16.0,35.0,291.0,-42.0,-935.0,1280,1271.6333919023866,92.88057324994627,
181,4.969143867492676,0.02700185775756836,37.03448884807601,36.424785602218584,101425.75,271.0,-31.0,-880.0,-12.75,23.5625,53.875,-13.25,11.8125,14.625,11.6875,17.5,177.6875,0.1005859375,0.98297119140625,-0.0037841796875,-0.15374755859375,-24.0,5.0,54.0,295.0,-37.0,-934.0,1242,1265.7067135219095,61.64336548616025,
182,4.996313810348511,0.02716994285583496,36.80537737256382,36.426855259378684,101425.75,272.0,-44.0,-877.0,-12.75,23.5625,53.875,-10.5,15.9375,16.125,12.0,17.8125,177.8125,0.103515625,0.9822998046875,-0.00201416015625,-0.15606689453125,-27.0,-8.0,55.0,300.0,-35.0,-932.0,1261,1264.7653708175276,52.014381590375685,
