Index,Time,Difference,Hz,AveHz,0x6103 Pressure,0x6103 Acceleration-X,0x6103 Acceleration-Y,0x6103 Acceleration-Z,0x6103 Magnetic-X,0x6103 Magnetic-Y,0x6103 Magnetic-Z,0x6103 Angular-Vel-X,0x6103 Angular-Vel-Y,0x6103 Angular-Vel-Z,0x6103 Heading,0x6103 Roll,0x6103 Pitch,0x6103 Quaternion-X,0x6103 Quaternion-Y,0x6103 Quaternion-Z,0x6103 Quaternion-W,0x6103 Linear-Acceleration-X,0x6103 Linear-Acceleration-Y,0x6103 Linear-Acceleration-Z,0x6103 Gravity-X,0x6103 Gravity-Y,0x6103 Gravity-Z,0x6103 Range,0x6103 Smoothed Range,0x6103 Velocity,
0,9.5367431640625e-07,9.5367431640625e-07,1048576.0,0.0,101418.0,201.0,-90.0,1084.0,13.1875,3.5625,-61.375,2.5625,-1.25,-2.8125,264.3125,8.625,5.4375,-0.0244140625,0.0859375,-0.73809814453125,-0.66876220703125,53.0,1.0,119.0,147.0,-92.0,965.0,1612,1844.0000000000002,,
1,0.027080297470092773,0.027079343795776367,36.928516715237855,36.92721622073726,101418.0,137.0,-99.0,1054.0,13.1875,3.5625,-61.375,9.375,-5.1875,-4.25,264.4375,8.8125,5.1875,-0.02691650390625,0.08502197265625,-0.737548828125,-0.66943359375,-13.0,-12.0,89.0,150.0,-87.0,965.0,2014,1878.0000000000002,125.5569568318087,
2,0.05036616325378418,0.023285865783691406,42.944505877052876,39.70919900970883,101418.0,150.0,-81.0,1016.0,12.75,2.75,-63.0,15.75,-7.6875,-4.6875,264.4375,8.9375,4.875,-0.02978515625,0.08404541015625,-0.73760986328125,-0.66937255859375,-2.0,0.0,51.0,153.0,-82.0,965.0,1920,1886.4000000000003,149.07464608535264,
3,0.07670116424560547,0.02633500099182129,37.97227880532696,39.11283524189638,101418.0,124.0,-84.0,960.0,12.75,2.75,-63.0,16.6875,-6.875,-6.8125,264.5625,9.1875,4.375,-0.0338134765625,0.0821533203125,-0.73675537109375,-0.6702880859375,-32.0,-10.0,-4.0,156.0,-74.0,965.0,2042,1917.5200000000004,252.33691311899534,
4,0.10251522064208984,0.025814056396484375,38.73858430619181,39.018596213777386,101418.0,92.0,-105.0,947.0,12.0,2.0625,-61.0,12.75,-6.3125,-6.125,264.5625,9.3125,4.125,-0.03607177734375,0.08111572265625,-0.7366943359375,-0.67034912109375,-66.0,-35.0,-17.0,158.0,-69.0,965.0,2010,1936.0160000000005,298.7541073398286,
5,0.12984919548034668,0.027333974838256836,36.58450722653013,38.50620700038742,101418.0,115.0,-99.0,929.0,12.0,2.0625,-61.0,9.875,-0.625,-4.75,264.75,9.375,3.625,-0.0394287109375,0.07855224609375,-0.73577880859375,-0.6715087890625,-28.0,-41.0,-31.0,160.0,-61.0,965.0,2061,1961.0128000000007,360.328257629859,
6,0.15436792373657227,0.024518728256225586,40.78514960277715,38.86817840627925,101418.0,159.0,-50.0,881.0,10.875,2.375,-61.0,12.0,0.0,-7.625,264.8125,9.375,3.5,-0.0401611328125,0.07781982421875,-0.73541259765625,-0.67193603515625,17.0,-13.0,-55.0,160.0,-59.0,965.0,2014,1971.6102400000007,367.5172494475186,
7,0.1853930950164795,0.031025171279907227,32.23189296774739,37.75760903812396,101418.0,134.0,-31.0,884.0,10.875,2.375,-61.0,0.3125,16.25,-4.5625,265.0625,8.9375,3.3125,-0.0379638671875,0.07421875,-0.7342529296875,-0.67376708984375,-18.0,25.0,-83.0,152.0,-56.0,967.0,2136,2004.4881920000007,436.73738748904054,
8,0.20789599418640137,0.022502899169921875,44.438718426852006,38.48077992703953,101418.0,113.0,-51.0,901.0,11.6875,0.875,-61.75,-7.0625,15.6875,-4.1875,265.0625,8.625,3.4375,-0.035400390625,0.0728759765625,-0.73419189453125,-0.674072265625,-34.0,6.0,-66.0,147.0,-58.0,967.0,2066,2016.7905536000007,447.7337670529083,
9,0.2366793155670166,0.028783321380615234,34.742342163245695,38.02613666698566,101418.0,87.0,-101.0,980.0,11.6875,0.875,-61.75,-8.0625,1.0625,-7.0,265.3125,8.4375,3.625,-0.03302001953125,0.07330322265625,-0.7330322265625,-0.6754150390625,-57.0,-39.0,12.0,144.0,-61.0,967.0,2056,2024.6324428800008,430.20495040482245,
10,0.2617330551147461,0.025053739547729492,39.914201155277254,38.20686689961996,101420.5,72.0,-138.0,1007.0,13.1875,1.25,-62.5625,-5.5,-6.625,-5.9375,265.4375,8.5625,3.6875,-0.03363037109375,0.07537841796875,-0.73199462890625,-0.67633056640625,-61.0,-39.0,28.0,148.0,-63.0,967.0,2249,2069.5059543040006,566.2934915164565,
11,0.2895522117614746,0.027819156646728516,35.946452751924035,37.98969426992845,101420.5,126.0,-104.0,967.0,13.1875,1.25,-62.5625,2.5625,-12.875,1.25,265.4375,8.9375,3.6875,-0.03564453125,0.07666015625,-0.73193359375,-0.6761474609375,-26.0,-41.0,0.0,152.0,-62.0,966.0,2169,2089.404763443201,581.1933026189924,
12,0.3169841766357422,0.027431964874267578,36.45382328912375,37.85677924797372,101420.5,174.0,-101.0,981.0,13.1875,1.25,-61.75,-2.875,-2.0,1.375,265.3125,9.0625,3.75,-0.0361328125,0.07818603515625,-0.73260498046875,-0.6751708984375,23.0,-21.0,19.0,155.0,-64.0,966.0,2141,2099.723810754561,560.6908450771358,
13,0.34585022926330566,0.028866052627563477,34.64276923839336,37.58852503203845,101420.5,182.0,-77.0,977.0,12.0,1.25,-61.875,0.8125,-5.6875,-1.0625,265.25,9.1875,3.75,-0.03692626953125,0.07867431640625,-0.73297119140625,-0.6746826171875,25.0,-13.0,12.0,157.0,-64.0,965.0,2160,2111.779048603649,546.384442861412,
14,0.3762211799621582,0.03037095069885254,32.92620010205283,37.212152706044286,101420.5,169.0,-65.0,967.0,12.0,1.25,-61.875,0.125,-2.75,-2.9375,265.3125,9.3125,3.75,-0.037841796875,0.07916259765625,-0.7327880859375,-0.67498779296875,18.0,1.0,-6.0,158.0,-63.0,965.0,2193,2128.023238882919,545.2319445383782,
15,0.39971923828125,0.023498058319091797,42.55670772540027,37.526339899221256,101420.5,162.0,-66.0,969.0,11.6875,3.6875,-61.5,1.0625,-1.4375,-2.5,265.5625,9.375,3.75,-0.03802490234375,0.0794677734375,-0.7308349609375,-0.67681884765625,2.0,-3.0,4.0,159.0,-63.0,965.0,2216,2145.6185911063353,565.5887762742803,
16,0.42595410346984863,0.026234865188598633,38.11721511855103,37.56273239220612,101420.5,149.0,-67.0,964.0,11.6875,3.6875,-61.5,0.6875,0.375,-3.625,265.6875,9.375,3.6875,-0.038330078125,0.07940673828125,-0.73028564453125,-0.67742919921875,-10.0,-4.0,0.0,160.0,-62.0,965.0,2216,2159.6948728850684,562.6847647097834,
17,0.4595961570739746,0.03364205360412598,29.724701463449204,36.9889950956743,101420.5,181.0,-65.0,986.0,12.0,2.375,-61.375,-0.3125,1.0,-6.75,265.8125,9.375,3.6875,-0.03839111328125,0.079345703125,-0.7293701171875,-0.678466796875,20.0,-2.0,21.0,160.0,-62.0,965.0,2235,2174.755898308055,551.1847366819741,
18,0.4929800033569336,0.033383846282958984,29.95460713316479,36.512637180878535,101420.5,155.0,-127.0,1016.0,12.0,2.75,-62.5625,6.125,-3.1875,-18.3125,266.375,9.5,3.5,-0.039794921875,0.07916259765625,-0.7259521484375,-0.6820068359375,-6.0,-68.0,51.0,162.0,-59.0,965.0,2211,2182.004718646444,517.7798195553107,
19,0.5232512950897217,0.030271291732788086,33.034599541613176,36.31142469841776,101420.5,134.0,-68.0,961.0,12.0,2.75,-62.5625,12.125,-13.5625,-20.6875,266.9375,9.8125,3.0,-0.04412841796875,0.0782470703125,-0.7237548828125,-0.6854248046875,-58.0,-27.0,-18.0,165.0,-54.0,965.0,2193,2184.2037749171554,473.26633192702235,
20,0.5494611263275146,0.02620983123779297,38.15362223920241,36.39929931654291,101420.5,99.0,-79.0,942.0,11.6875,2.375,-61.375,11.875,-4.25,-15.1875,267.25,9.9375,2.75,-0.04644775390625,0.0775146484375,-0.720703125,-0.68731689453125,-70.0,-32.0,-21.0,170.0,-46.0,964.0,2272,2201.7630199337245,492.9345788510976,
21,0.5782032012939453,0.028742074966430664,34.79219928164376,36.31941150274621,101420.5,130.0,-66.0,941.0,11.6875,2.375,-61.375,7.4375,-10.0625,-9.9375,267.5625,10.1875,2.375,-0.050048828125,0.0767822265625,-0.7188720703125,-0.6890869140625,-43.0,-25.0,-22.0,174.0,-40.0,964.0,2221,2205.6104159469796,457.02705784684514,
22,0.6041522026062012,0.02594900131225586,38.53712857641632,36.414664889238274,101420.5,161.0,-53.0,944.0,10.875,3.1875,-61.75,4.1875,-2.375,-4.125,267.875,10.375,2.1875,-0.05181884765625,0.07666015625,-0.71673583984375,-0.691162109375,-14.0,-16.0,-19.0,176.0,-37.0,963.0,2197,2203.8883327575836,404.6879379332567,
23,0.6351139545440674,0.03096175193786621,32.297913955476155,36.21397362700231,101425.0,181.0,-28.0,938.0,10.875,3.1875,-61.75,1.375,-5.4375,-2.375,267.9375,10.5,2.125,-0.05322265625,0.076904296875,-0.71624755859375,-0.6915283203125,1.0,6.0,-24.0,179.0,-35.0,963.0,2211,2205.3106662060673,368.81298447344307,
24,0.6655051708221436,0.030391216278076172,32.90424413587511,36.062830241200345,101425.0,181.0,-42.0,952.0,10.875,2.0625,-61.75,-1.0625,-1.875,-2.875,268.0625,10.5625,2.125,-0.0537109375,0.07745361328125,-0.7156982421875,-0.6920166015625,1.0,-7.0,-10.0,180.0,-35.0,963.0,2263,2216.848532964854,369.89616448992984,
25,0.6922941207885742,0.026788949966430664,37.32882405816965,36.11181902212769,101425.0,169.0,-52.0,976.0,10.875,2.0625,-62.1875,-1.5,-1.3125,-2.875,268.1875,10.625,2.125,-0.05389404296875,0.07781982421875,-0.7149658203125,-0.6927490234375,-12.0,-16.0,13.0,181.0,-35.0,963.0,2197,2212.878826371883,318.08810014378037,
26,0.7174232006072998,0.025129079818725586,39.79453315496352,36.24081292323828,101425.0,154.0,-50.0,972.0,10.875,2.0625,-62.1875,-2.1875,2.3125,-0.5,268.1875,10.5625,2.1875,-0.05328369140625,0.077880859375,-0.71484375,-0.69287109375,-25.0,-13.0,9.0,180.0,-36.0,963.0,2239,2218.1030610975067,307.06888832921703,
27,0.7437272071838379,0.026304006576538086,38.01702212513709,36.303633562414525,101425.0,171.0,-52.0,974.0,10.1875,1.6875,-61.75,-1.1875,-0.25,-0.0625,268.1875,10.5625,2.1875,-0.052734375,0.0780029296875,-0.71484375,-0.69293212890625,-8.0,-14.0,11.0,179.0,-37.0,963.0,2202,2214.8824488780056,264.11819089576903,
28,0.7697310447692871,0.02600383758544922,38.4558623977702,36.37634234746565,101425.0,179.0,-44.0,969.0,10.1875,1.6875,-61.75,0.0625,0.25,0.1875,268.1875,10.5,2.25,-0.052490234375,0.077880859375,-0.7149658203125,-0.69281005859375,0.0,-6.0,5.0,179.0,-37.0,963.0,2202,2212.3059591024044,227.79825817821396,
29,0.7998452186584473,0.030114173889160156,33.20695442885645,36.25701488675609,101425.0,194.0,-42.0,965.0,10.875,1.6875,-61.375,0.75,0.0625,-1.6875,268.1875,10.5,2.1875,-0.05255126953125,0.0777587890625,-0.71484375,-0.69293212890625,15.0,-5.0,2.0,179.0,-37.0,963.0,2155,2200.844767281924,166.9593049120847,
30,0.8284261226654053,0.028580904006958008,34.98839643968401,36.21324723981062,101425.0,204.0,-45.0,975.0,10.875,1.6875,-61.375,1.625,-0.25,-4.25,268.25,10.5,2.1875,-0.05279541015625,0.07763671875,-0.7144775390625,-0.693359375,24.0,-8.0,11.0,179.0,-37.0,963.0,,2200.844767281924,166.9593049120847,
31,0.8529410362243652,0.02451491355895996,40.79149606605526,36.34483356226453,101425.0,181.0,-44.0,969.0,10.875,2.375,-62.1875,1.75,1.625,-9.875,268.5625,10.5,2.0625,-0.0531005859375,0.0771484375,-0.7127685546875,-0.69512939453125,2.0,-8.0,6.0,179.0,-35.0,963.0,2216,2203.875813825539,162.6274667368666,
32,0.8805601596832275,0.027619123458862305,36.20679713059917,36.340503994084486,101425.0,162.0,-39.0,958.0,10.875,2.375,-62.1875,3.3125,0.875,-5.6875,268.6875,10.5,2.0,-0.053466796875,0.07672119140625,-0.7120361328125,-0.6959228515625,-17.0,-12.0,0.0,179.0,-34.0,963.0,2230,2209.100651060431,165.2821822435943,
33,0.9088211059570312,0.02826094627380371,35.38451934027924,36.31077643740399,101425.0,146.0,-34.0,959.0,10.875,1.6875,-62.5625,-0.75,2.6875,-1.4375,268.75,10.4375,1.9375,-0.0533447265625,0.0760498046875,-0.71148681640625,-0.696533203125,-32.0,-1.0,-4.0,178.0,-33.0,963.0,2169,2201.0805208483453,120.37511875912388,
34,0.9347171783447266,0.025896072387695312,38.61589452750976,36.374639075543655,101425.0,170.0,-51.0,984.0,10.875,1.6875,-62.5625,-3.5625,1.125,0.625,268.75,10.375,2.0,-0.052490234375,0.07623291015625,-0.71148681640625,-0.69659423828125,-7.0,-16.0,20.0,177.0,-34.0,963.0,2216,2204.064416678676,119.8601875497244,
35,0.9619410037994385,0.027223825454711914,36.732530542540616,36.3847677370632,101425.0,172.0,-41.0,965.0,11.6875,2.0625,-61.75,0.125,0.3125,1.25,268.75,10.375,2.0625,-0.05218505859375,0.0765380859375,-0.711669921875,-0.6964111328125,-4.0,-6.0,2.0,177.0,-35.0,963.0,2174,2198.051533342941,85.78732671689062,
36,0.9932961463928223,0.03135514259338379,31.892695018743396,36.242967548736424,101425.0,181.0,-27.0,962.0,10.875,0.875,-61.75,0.125,-0.3125,0.4375,268.6875,10.375,2.0625,-0.0521240234375,0.0765380859375,-0.71173095703125,-0.69635009765625,3.0,8.0,-1.0,177.0,-35.0,963.0,2207,2199.841226674353,82.91640840478128,
37,1.0243000984191895,0.031003952026367188,32.25395262996001,36.12222634470347,101423.5,184.0,-36.0,972.0,10.875,0.875,-61.75,-0.75,0.125,-0.0625,268.6875,10.375,2.0625,-0.0521240234375,0.07659912109375,-0.71173095703125,-0.6962890625,7.0,0.0,8.0,177.0,-35.0,963.0,2178,2195.4729813394824,60.53544975360712,
38,1.0573339462280273,0.03303384780883789,30.27198059962181,35.93944953300953,101423.5,180.0,-35.0,986.0,11.6875,0.875,-61.0,0.0625,-0.25,-0.3125,268.6875,10.375,2.125,-0.05194091796875,0.0765380859375,-0.7117919921875,-0.6962890625,3.0,0.0,23.0,177.0,-35.0,963.0,2178,2191.978385071586,43.90306973571992,
39,1.0882160663604736,0.03088212013244629,32.381196488817174,35.83847105881745,101423.5,170.0,-39.0,978.0,11.6875,0.875,-61.0,2.125,-0.4375,-1.0,268.75,10.375,2.0625,-0.05230712890625,0.07635498046875,-0.71160888671875,-0.69647216796875,-7.0,-3.0,14.0,177.0,-35.0,963.0,2174,2188.382708057269,27.869530371055504,
40,1.127134084701538,0.03891801834106445,25.6950390237328,35.48823564375829,101423.5,168.0,-34.0,958.0,10.875,1.25,-61.75,2.0625,-0.9375,-0.9375,268.75,10.4375,1.9375,-0.0531005859375,0.0760498046875,-0.71142578125,-0.6966552734375,-9.0,-1.0,-5.0,178.0,-33.0,963.0,2169,2184.5061664458153,15.121788535606928,
41,1.154588222503662,0.027454137802124023,36.4243818985506,35.5104956043062,101423.5,191.0,-32.0,970.0,10.875,1.25,-62.1875,2.625,-1.4375,-1.625,268.8125,10.5,1.875,-0.0538330078125,0.07586669921875,-0.7113037109375,-0.69671630859375,4.0,-3.0,5.0,178.0,-32.0,963.0,2136,2174.8049331566526,-21.726532939093204,
42,1.1819040775299072,0.027315855026245117,36.608775344546174,35.535878755725186,101423.5,173.0,-34.0,963.0,10.875,1.25,-62.1875,1.8125,-0.75,-1.3125,268.8125,10.5,1.8125,-0.0543212890625,0.07550048828125,-0.7110595703125,-0.69696044921875,-5.0,-3.0,0.0,178.0,-31.0,963.0,2178,2175.443946525322,-17.2145299596053,
43,1.2088382244110107,0.026934146881103516,37.12759139594583,35.57134373456063,101423.5,175.0,-34.0,966.0,10.5,0.5625,-61.75,1.6875,-1.125,-1.5625,268.8125,10.5,1.8125,-0.05462646484375,0.075439453125,-0.71087646484375,-0.69708251953125,-6.0,-8.0,3.0,179.0,-30.0,963.0,2150,2170.3551572202578,-34.38652596549393,
44,1.2376019954681396,0.028763771057128906,34.765956035940455,35.55262528754764,101423.5,169.0,-36.0,956.0,10.5,0.5625,-61.75,1.4375,-1.125,-1.625,268.875,10.5625,1.75,-0.05511474609375,0.0753173828125,-0.71063232421875,-0.69732666015625,-10.0,-7.0,-7.0,179.0,-29.0,963.0,2178,2171.8841257762065,-25.632268009299672,
45,1.262012243270874,0.024410247802734375,40.966401000156274,35.65734028329973,101423.5,163.0,-42.0,962.0,11.6875,0.875,-62.1875,0.0625,0.125,-0.375,268.875,10.5,1.75,-0.05499267578125,0.07525634765625,-0.7105712890625,-0.6973876953125,-15.0,-13.0,-5.0,179.0,-29.0,963.0,2136,2164.7073006209653,-52.469910930131704,
46,1.2898340225219727,0.027821779251098633,35.94306427977685,35.66350336305877,101423.5,165.0,-44.0,970.0,11.6875,0.875,-62.1875,0.875,-0.4375,-1.25,268.9375,10.5,1.75,-0.05499267578125,0.07525634765625,-0.71044921875,-0.697509765625,-14.0,-14.0,7.0,179.0,-29.0,963.0,2211,2173.965840496772,-13.944890447817912,
47,1.3161141872406006,0.02628016471862793,38.051511880029395,35.71118711100701,101423.5,155.0,-41.0,968.0,10.5,2.375,-62.1875,0.25,0.0625,-0.0625,268.9375,10.5,1.75,-0.05487060546875,0.0750732421875,-0.71051025390625,-0.697509765625,-16.0,-17.0,7.0,179.0,-29.0,963.0,2136,2166.372672397418,-41.44355401700071,
48,1.3420929908752441,0.025978803634643555,38.49291961491515,35.76503291973596,101423.5,169.0,-43.0,974.0,10.5,2.375,-62.1875,1.875,0.1875,0.625,268.875,10.5,1.6875,-0.0548095703125,0.07489013671875,-0.7105712890625,-0.69744873046875,-9.0,-13.0,10.0,178.0,-29.0,963.0,2183,2169.698137917934,-24.49851091895949,
49,1.374433994293213,0.03234100341796875,30.920500117952347,35.65103904840312,101423.5,151.0,-35.0,953.0,10.5,-0.5,-62.1875,1.375,0.6875,0.75,268.875,10.4375,1.6875,-0.05487060546875,0.07421875,-0.71075439453125,-0.6973876953125,-20.0,-2.0,-5.0,178.0,-28.0,963.0,2174,2170.5585103343474,-19.388345286744947,
50,1.4092950820922852,0.034861087799072266,28.685278146329452,35.47873020728092,101417.0,150.0,-37.0,956.0,10.5,0.1875,-62.1875,0.375,2.1875,1.5625,268.875,10.375,1.6875,-0.054443359375,0.07391357421875,-0.7109375,-0.69720458984375,-22.0,-3.0,-2.0,177.0,-28.0,964.0,2249,2186.246808267478,27.55280822736379,
51,1.4376671314239502,0.02837204933166504,35.24595591633684,35.474136457085585,101417.0,143.0,-34.0,944.0,10.5,0.1875,-62.1875,-1.1875,2.1875,2.1875,268.8125,10.25,1.6875,-0.05340576171875,0.07330322265625,-0.71142578125,-0.6968994140625,-30.0,-4.0,-20.0,174.0,-29.0,964.0,2230,2194.997446613983,55.639988744698655,
52,1.4645922183990479,0.026925086975097656,37.14008429851592,35.504763269083476,101417.0,138.0,-32.0,938.0,10.875,0.1875,-62.1875,-2.4375,2.6875,2.3125,268.75,10.125,1.8125,-0.05224609375,0.07305908203125,-0.71185302734375,-0.696533203125,-26.0,-6.0,-33.0,172.0,-30.0,964.0,2103,2176.5979572911865,-18.259868579601395,
53,1.4917922019958496,0.027199983596801758,36.76472805364421,35.52773632218481,101417.0,138.0,-34.0,929.0,10.875,0.1875,-62.1875,-3.0,1.75,1.25,268.6875,10.0625,1.875,-0.051513671875,0.0731201171875,-0.7120361328125,-0.6964111328125,-32.0,-3.0,-34.0,171.0,-31.0,964.0,2103,2161.8783658329494,-70.55005942392444,
54,1.5203521251678467,0.02855992317199707,35.0140997921345,35.51808762331187,101417.0,137.0,-34.0,933.0,11.25,0.1875,-61.375,-7.125,3.0,1.9375,268.625,9.875,2.0625,-0.04913330078125,0.0736083984375,-0.71234130859375,-0.69622802734375,-36.0,1.0,-22.0,169.0,-35.0,965.0,1930,2115.5026926663595,-225.87529829977126,
55,1.5476562976837158,0.02730417251586914,36.624438972424514,35.537606174132584,101417.0,136.0,-39.0,971.0,10.875,0.1875,-63.0,-8.4375,2.875,1.625,268.625,9.8125,2.25,-0.047607421875,0.07403564453125,-0.7125244140625,-0.69610595703125,-31.0,0.0,6.0,167.0,-38.0,965.0,1626,2017.6021541330877,-561.8429983577252,
56,1.5740001201629639,0.026343822479248047,37.959563415208066,35.57814213775413,101417.0,128.0,-41.0,978.0,10.875,0.1875,-63.0,-8.625,3.5625,1.875,268.625,9.6875,2.5,-0.04547119140625,0.0750732421875,-0.712646484375,-0.69598388671875,-32.0,3.0,20.0,166.0,-42.0,965.0,1499,1913.8817233064701,-899.3769256635217,
57,1.601647138595581,0.027647018432617188,36.17026560883063,35.58836314594298,101417.0,139.0,-37.0,983.0,11.25,1.25,-62.5625,-7.5,1.875,1.125,268.625,9.6875,2.6875,-0.04425048828125,0.07574462890625,-0.71270751953125,-0.6959228515625,-25.0,7.0,18.0,165.0,-45.0,965.0,1504,1831.9053786451761,-1105.9498491011743,
58,1.6308889389038086,0.02924180030822754,34.197620853003286,35.563427169347484,101417.0,135.0,-45.0,980.0,11.25,1.25,-62.5625,-7.875,1.375,0.5625,268.625,9.5625,2.9375,-0.041748046875,0.07672119140625,-0.71270751953125,-0.696044921875,-27.0,8.0,10.0,163.0,-50.0,965.0,1415,1748.524302916141,-1280.4983056007663,
59,1.659541130065918,0.028652191162109375,34.90134469444814,35.55199623022087,101417.0,132.0,-30.0,954.0,12.0,1.25,-61.75,-6.8125,1.5625,-0.125,268.625,9.5,3.0625,-0.0406494140625,0.0770263671875,-0.712646484375,-0.69610595703125,-24.0,16.0,0.0,162.0,-51.0,965.0,1400,1678.819442332913,-1395.7278116500593,
60,1.6876671314239502,0.028126001358032227,35.55428968627351,35.55203445206382,101417.0,130.0,-62.0,975.0,12.0,1.25,-61.75,-10.25,2.375,0.25,268.625,9.375,3.3125,-0.0384521484375,0.077880859375,-0.7125244140625,-0.6962890625,-29.0,-6.0,9.0,160.0,-56.0,965.0,1405,1624.0555538663305,-1450.8641459738183,
61,1.7140159606933594,0.02634882926940918,37.952350359679684,35.588933474880875,101417.0,130.0,-63.0,970.0,12.375,2.75,-61.75,-10.0625,2.25,0.6875,268.6875,9.3125,3.5,-0.03680419921875,0.07867431640625,-0.71246337890625,-0.69635009765625,-28.0,-4.0,4.0,158.0,-59.0,965.0,1378,1574.8444430930645,-1492.5454631420364,
62,1.7408099174499512,0.026793956756591797,37.321848694630816,35.61560591912386,101417.0,133.0,-71.0,959.0,12.375,2.75,-61.75,-10.3125,1.25,-0.3125,268.6875,9.25,3.8125,-0.03460693359375,0.0802001953125,-0.7122802734375,-0.69647216796875,-24.0,-6.0,-6.0,157.0,-64.0,965.0,1391,1538.0755544744518,-1480.5192065971921,
63,1.7650721073150635,0.024262189865112305,41.21639495690968,35.69259280621252,101424.25,137.0,-74.0,956.0,12.375,2.0625,-61.0,-10.125,1.25,0.375,268.6875,9.1875,4.0,-0.03302001953125,0.08123779296875,-0.712158203125,-0.696533203125,-24.0,-10.0,-9.0,157.0,-68.0,965.0,1374,1505.2604435795615,-1467.7193430573318,
64,1.7921991348266602,0.02712702751159668,36.86360400425386,35.71031742864334,101424.25,158.0,-69.0,942.0,12.375,2.0625,-61.0,-10.3125,0.0,0.5625,268.75,9.1875,4.3125,-0.0311279296875,0.0828857421875,-0.71197509765625,-0.69659423828125,1.0,4.0,-22.0,156.0,-73.0,965.0,1377,1479.6083548636493,-1415.5102527821364,
65,1.820350170135498,0.02815103530883789,35.52267222250453,35.70741556563357,101424.25,173.0,-77.0,964.0,11.6875,2.5,-62.1875,-10.875,1.3125,-0.1875,268.75,9.125,4.75,-0.02825927734375,0.08526611328125,-0.711669921875,-0.69677734375,21.0,5.0,5.0,155.0,-80.0,964.0,1359,1455.4866838909195,-1359.6458486462611,
66,1.8474600315093994,0.027109861373901367,36.88694627419596,35.724724147930345,101424.25,181.0,-71.0,981.0,12.75,3.1875,-61.375,-10.125,1.8125,-1.75,268.8125,9.125,4.9375,-0.0269775390625,0.08624267578125,-0.71136474609375,-0.697021484375,25.0,12.0,17.0,155.0,-83.0,964.0,1369,1438.1893471127355,-1287.4858570239899,
67,1.8782110214233398,0.03075098991394043,32.519278332131584,35.67224302050271,101424.25,191.0,-87.0,991.0,12.75,3.1875,-61.375,-9.0,2.75,-2.625,268.875,9.0625,5.0625,-0.0252685546875,0.08758544921875,-0.71063232421875,-0.6976318359375,36.0,0.0,27.0,155.0,-87.0,964.0,1382,1426.9514776901885,-1195.2820116827866,
68,1.9052679538726807,0.02705693244934082,36.95910472749703,35.690517893707295,101424.25,184.0,-94.0,949.0,11.25,4.75,-60.5625,-5.8125,3.4375,-5.125,269.0,9.0625,5.25,-0.0242919921875,0.088134765625,-0.7099609375,-0.69830322265625,35.0,-7.0,18.0,154.0,-89.0,964.0,1400,1421.5611821521509,-1095.6758602447574,
69,1.9286301136016846,0.023362159729003906,42.80426174633629,35.77668911906786,101424.25,186.0,-90.0,915.0,11.25,4.75,-60.5625,-2.3125,3.9375,-6.0625,269.1875,8.9375,5.3125,-0.02288818359375,0.08795166015625,-0.70843505859375,-0.69989013671875,39.0,1.0,-58.0,152.0,-90.0,964.0,1621,1461.4489457217207,-815.371646989497,
70,1.9582631587982178,0.029633045196533203,33.74610990425617,35.74596176489316,101424.25,246.0,-66.0,864.0,11.6875,5.1875,-60.5625,-4.0,3.0625,-5.5625,269.375,8.875,5.375,-0.0224609375,0.087890625,-0.7081298828125,-0.70025634765625,72.0,13.0,-84.0,151.0,-91.0,964.0,1522,1473.5591565773768,-692.9672316406786,
71,1.9863669872283936,0.02810382843017578,35.58234076487156,35.7436467966412,101424.25,330.0,-72.0,901.0,11.6875,5.1875,-60.5625,-13.125,-1.9375,-8.75,269.625,8.875,5.625,-0.0206298828125,0.0897216796875,-0.70623779296875,-0.70196533203125,178.0,23.0,-62.0,152.0,-95.0,964.0,1457,1470.2473252619016,-635.4547795189121,
72,2.0123190879821777,0.02595210075378418,38.53252611367833,35.77961389423429,101424.25,318.0,-111.0,971.0,12.375,4.75,-62.25,-21.5625,-1.375,-11.9375,269.875,8.9375,6.0,-0.01873779296875,0.09222412109375,-0.70458984375,-0.703369140625,164.0,-9.0,7.0,153.0,-101.0,963.0,1452,1466.5978602095213,-585.9716123102008,
73,2.0398902893066406,0.02757120132446289,36.26972899119697,35.78623830049837,101424.25,222.0,-180.0,1125.0,12.375,4.75,-62.25,-23.625,-1.125,-14.0,270.3125,9.0,6.625,-0.01483154296875,0.09674072265625,-0.7015380859375,-0.70587158203125,67.0,-68.0,163.0,154.0,-112.0,961.0,1410,1455.2782881676171,-568.4302321048002,
74,2.068369150161743,0.02847886085510254,35.11376403318571,35.77697916941631,101424.25,105.0,-108.0,1062.0,12.0,5.1875,-61.875,-12.0,7.25,-5.75,270.625,8.9375,7.0625,-0.01104736328125,0.09857177734375,-0.699951171875,-0.7081298828125,-6.0,-31.0,132.0,153.0,-119.0,961.0,1415,1447.2226305340937,-539.8736550218875,
75,2.0922391414642334,0.023869991302490234,41.89360554545636,35.84676269248647,101424.25,102.0,-69.0,1029.0,12.0,5.1875,-61.875,-5.75,-0.75,-6.3125,270.75,8.9375,7.1875,-0.01080322265625,0.099609375,-0.6986083984375,-0.70849609375,-51.0,51.0,68.0,153.0,-121.0,960.0,1438,1445.378104427275,-493.6136744334344,
76,2.124778985977173,0.03253984451293945,30.7315543441626,35.76842603469559,101424.25,152.0,-5.0,923.0,12.0,6.6875,-60.5625,1.3125,-1.5625,-1.8125,270.875,9.0,7.1875,-0.0111083984375,0.0999755859375,-0.69805908203125,-0.70892333984375,-15.0,91.0,2.0,154.0,-121.0,960.0,1443,1444.90248354182,-445.7139638989492,
77,2.151808977127075,0.027029991149902344,36.995942560773386,35.78384550788718,101423.5,178.0,-12.0,907.0,12.375,6.6875,-61.375,3.375,-0.5,-0.8125,270.875,9.0,7.0625,-0.01177978515625,0.09942626953125,-0.69805908203125,-0.708984375,23.0,109.0,-53.0,154.0,-119.0,961.0,1424,1440.721986833456,-416.6087091188679,
78,2.17912220954895,0.027313232421875,36.61229050279329,35.79422928103926,101423.5,184.0,-50.0,902.0,12.375,6.6875,-61.375,0.4375,0.75,-1.3125,270.875,9.0,7.0,-0.0120849609375,0.09906005859375,-0.69781494140625,-0.70928955078125,30.0,67.0,-58.0,154.0,-118.0,961.0,1424,1437.3775894667647,-387.19244300158897,
79,2.206531047821045,0.027408838272094727,36.48458172771635,35.80280462312674,101423.5,181.0,-115.0,973.0,12.375,6.6875,-61.0,-2.9375,2.75,0.0,270.9375,8.9375,7.0625,-0.0113525390625,0.09906005859375,-0.69769287109375,-0.70941162109375,27.0,4.0,11.0,153.0,-119.0,961.0,1410,1431.9020715734118,-368.45039670959056,
80,2.233518123626709,0.026987075805664062,37.054774188988624,35.81793187784784,101423.5,203.0,-146.0,1032.0,12.375,6.6875,-61.0,-0.6875,0.1875,2.125,270.875,8.9375,7.125,-0.0108642578125,0.09918212890625,-0.6978759765625,-0.709228515625,50.0,-25.0,71.0,152.0,-120.0,961.0,1415,1428.5216572587294,-344.13140594820965,
81,2.2582411766052246,0.024723052978515625,40.448079000154294,35.868622377068654,101423.5,207.0,-137.0,1027.0,12.375,5.875,-59.375,1.9375,0.0625,3.375,270.8125,8.9375,7.125,-0.010986328125,0.09906005859375,-0.6982421875,-0.7088623046875,54.0,-17.0,66.0,152.0,-120.0,961.0,1433,1429.4173258069836,-306.0954581336147,
82,2.2863972187042236,0.028156042098999023,35.51635547652314,35.8642843549609,101423.5,194.0,-98.0,981.0,12.375,5.875,-59.375,5.125,-0.9375,3.4375,270.6875,8.9375,7.0,-0.01171875,0.098388671875,-0.69903564453125,-0.70819091796875,41.0,20.0,19.0,152.0,-118.0,961.0,1424,1428.3338606455868,-279.333985702113,
83,2.3140671253204346,0.027669906616210938,36.14034603984283,35.86758529682098,101423.5,187.0,-73.0,931.0,11.6875,6.25,-61.375,4.9375,0.375,3.9375,270.5625,8.9375,6.875,-0.01263427734375,0.0975341796875,-0.6998291015625,-0.70751953125,34.0,43.0,-29.0,152.0,-116.0,961.0,1429,1428.4670885164694,-250.91909699631688,
84,2.339982032775879,0.025914907455444336,38.58782832696996,35.897711530866886,101423.5,180.0,-63.0,935.0,11.6875,6.25,-61.375,3.5,1.375,3.6875,270.5,8.875,6.8125,-0.01287841796875,0.096923828125,-0.70037841796875,-0.70703125,28.0,51.0,-26.0,152.0,-115.0,961.0,1400,1422.7736708131756,-247.79684978952844,
85,2.3633861541748047,0.02340412139892578,42.727517216087364,35.965345675674584,101423.5,175.0,-62.0,924.0,12.375,6.6875,-62.5625,2.375,2.375,4.1875,270.375,8.8125,6.75,-0.01300048828125,0.0960693359375,-0.701171875,-0.70635986328125,24.0,51.0,-37.0,151.0,-114.0,962.0,1419,1422.0189366505406,-226.24195650333135,
86,2.3992691040039062,0.03588294982910156,27.868388880029766,35.84424934096929,101423.5,153.0,-66.0,940.0,12.0,6.25,-61.0,2.125,3.0625,4.875,270.25,8.8125,6.5625,-0.0140380859375,0.0948486328125,-0.701904296875,-0.70574951171875,3.0,44.0,-22.0,150.0,-111.0,962.0,1415,1420.6151493204325,-207.5298899750294,
87,2.4290239810943604,0.0297548770904541,33.607935833847485,35.81685511429305,101423.5,165.0,-65.0,950.0,12.0,6.25,-61.0,0.3125,4.125,7.5,270.125,8.6875,6.4375,-0.01446533203125,0.09344482421875,-0.703125,-0.70477294921875,16.0,43.0,-13.0,149.0,-108.0,963.0,1433,1423.0921194563462,-178.4523156385121,
88,2.453458309173584,0.024434328079223633,40.92602819924867,35.86773807036553,101423.5,167.0,-89.0,993.0,12.375,6.6875,-61.375,-1.3125,4.5625,9.375,269.875,8.5625,6.4375,-0.0135498046875,0.0927734375,-0.70465087890625,-0.70330810546875,20.0,20.0,29.0,146.0,-109.0,963.0,1415,1421.473695565077,-167.23065025590313,
89,2.480756998062134,0.027298688888549805,36.631795910881316,35.87614589801547,101423.5,173.0,-93.0,1001.0,12.375,6.6875,-61.375,1.5,2.125,11.8125,269.5625,8.4375,6.5,-0.012939453125,0.0924072265625,-0.7059326171875,-0.70208740234375,25.0,14.0,39.0,145.0,-110.0,963.0,1457,1428.5789564520617,-124.47973855975353,
90,2.506469249725342,0.025712251663208008,38.891965320599006,35.90708324463274,101423.5,173.0,-89.0,991.0,13.1875,5.5,-61.75,2.0,2.75,13.8125,269.3125,8.375,6.5,-0.01251220703125,0.0916748046875,-0.708251953125,-0.6998291015625,30.0,20.0,27.0,143.0,-110.0,963.0,1485,1439.8631651616495,-68.14525932340916,
91,2.5367391109466553,0.030269861221313477,33.03616071076945,35.872825710500756,101423.5,183.0,-79.0,970.0,13.1875,5.5,-61.75,3.5625,2.0625,16.375,268.8125,8.3125,6.375,-0.01318359375,0.09088134765625,-0.71099853515625,-0.6971435546875,40.0,28.0,6.0,142.0,-108.0,964.0,1475,1446.8905321293196,-38.11501093931803,
92,2.5651602745056152,0.02842116355895996,35.185047857927806,35.86520534968569,101423.5,183.0,-71.0,949.0,13.5,5.1875,-61.0,3.6875,1.5,18.25,268.3125,8.3125,6.3125,-0.01434326171875,0.09014892578125,-0.714111328125,-0.694091796875,40.0,35.0,-14.0,142.0,-106.0,964.0,1508,1459.1124257034558,8.699281186661935,
93,2.5905799865722656,0.02541971206665039,39.339548669080266,35.899296868672735,101423.5,190.0,-62.0,961.0,13.1875,5.875,-61.0,3.1875,0.5625,20.0625,267.75,8.4375,6.125,-0.01605224609375,0.08966064453125,-0.71746826171875,-0.69061279296875,46.0,41.0,-3.0,143.0,-104.0,964.0,1546,1476.4899405627648,76.19171222354106,
94,2.6191961765289307,0.02861618995666504,34.94525307227661,35.88887340411926,101423.5,217.0,-63.0,1002.0,13.1875,5.875,-61.0,-0.1875,0.4375,20.5,267.1875,8.5,6.0,-0.017822265625,0.08941650390625,-0.71978759765625,-0.68817138671875,64.0,47.0,5.0,145.0,-102.0,964.0,1536,1488.3919524502119,110.16442274879527,
95,2.6476399898529053,0.02844381332397461,35.1570300581717,35.881011151096075,101423.5,208.0,-92.0,1069.0,13.5,5.875,-60.5625,0.125,0.5625,20.0625,266.8125,8.5625,6.0625,-0.0181884765625,0.08966064453125,-0.72320556640625,-0.68450927734375,62.0,10.0,105.0,146.0,-102.0,964.0,1602,1511.1135619601696,179.0304113250781,
96,2.673506021499634,0.025866031646728516,38.66074292561527,35.907904911375994,101423.5,217.0,-101.0,1070.0,13.5,5.875,-60.5625,5.6875,-1.0,18.9375,266.25,8.5,6.0,-0.0185546875,0.08917236328125,-0.7266845703125,-0.680908203125,72.0,1.0,106.0,145.0,-102.0,964.0,1635,1535.8908495681358,256.91820485313156,
97,2.7027220726013184,0.02921605110168457,34.22776050464742,35.88974278314875,101423.5,227.0,-104.0,1047.0,12.75,5.1875,-61.375,9.6875,-2.0625,16.75,265.6875,8.5,5.875,-0.01995849609375,0.08795166015625,-0.72991943359375,-0.67755126953125,81.0,-4.0,82.0,145.0,-99.0,964.0,1682,1565.1126796545088,331.24616453820624,
98,2.7300591468811035,0.027337074279785156,36.58035932321646,35.89665817751896,101423.5,226.0,-110.0,1008.0,12.75,5.1875,-61.375,10.9375,-2.5625,14.3125,265.375,8.5,5.6875,-0.02130126953125,0.08697509765625,-0.73175048828125,-0.6756591796875,80.0,-13.0,43.0,145.0,-96.0,964.0,1771,1606.2901437236071,448.7501912510306,
99,2.756606340408325,0.02654719352722168,37.668765211456076,35.91372425898706,101423.5,219.0,-131.0,971.0,13.1875,4.75,-60.5625,9.75,-0.9375,11.0,265.0,8.5,5.4375,-0.02301025390625,0.0853271484375,-0.73406982421875,-0.67327880859375,73.0,-39.0,5.0,145.0,-92.0,965.0,2061,1697.2321149788859,746.442348434136,
100,2.7854161262512207,0.028809785842895508,34.71042809735429,35.90127846878878,101423.5,206.0,-135.0,924.0,13.1875,4.75,-60.5625,10.4375,-1.0625,6.8125,264.75,8.5625,5.1875,-0.0247802734375,0.08367919921875,-0.73565673828125,-0.67169189453125,60.0,-47.0,-41.0,146.0,-88.0,965.0,2258,1809.3856919831087,1061.087980637339,
101,2.810197114944458,0.024780988693237305,40.353515042476836,35.940539353231884,101423.5,191.0,-120.0,867.0,12.375,3.25,-61.375,8.25,0.5625,5.1875,264.5625,8.5,4.9375,-0.02569580078125,0.08245849609375,-0.73651123046875,-0.6708984375,41.0,-42.0,-77.0,145.0,-85.0,966.0,2230,1893.508553586487,1294.4444986864178,
102,2.8391270637512207,0.028929948806762695,34.566255428915206,35.92653576597295,101423.5,192.0,-95.0,853.0,12.375,3.25,-61.375,5.75,0.375,4.8125,264.4375,8.5,4.8125,-0.02691650390625,0.0809326171875,-0.73779296875,-0.66961669921875,47.0,-12.0,-112.0,145.0,-82.0,966.0,2314,1977.6068428691897,1455.6963436658461,
103,2.864362955093384,0.025235891342163086,39.62610182622087,35.95913004559927,101423.5,179.0,-89.0,892.0,13.1875,3.1875,-61.0,-0.375,0.4375,3.4375,264.375,8.5,4.8125,-0.02691650390625,0.08087158203125,-0.73822021484375,-0.66912841796875,34.0,-8.0,-74.0,145.0,-81.0,966.0,2404,2062.8854742953517,1648.0526825486472,
104,2.89036226272583,0.02599930763244629,38.46256270117103,35.981648854604174,101427.75,164.0,-90.0,930.0,13.1875,3.1875,-61.0,-2.125,-0.375,3.3125,264.3125,8.5,4.875,-0.02667236328125,0.0810546875,-0.73858642578125,-0.66876220703125,19.0,-8.0,-35.0,144.0,-82.0,966.0,2389,2128.1083794362817,1734.1114221473374,
105,2.917351245880127,0.026988983154296875,37.0521554770318,35.99155231934469,101427.75,157.0,-86.0,963.0,14.25,2.0625,-61.375,-1.1875,-2.625,2.9375,264.1875,8.5,4.9375,-0.026611328125,0.08172607421875,-0.73907470703125,-0.6680908203125,11.0,-2.0,-3.0,145.0,-83.0,966.0,2455,2193.486703549025,1802.9410629179188,
106,2.9410240650177,0.023672819137573242,42.242539605805156,36.04186761367492,101427.75,147.0,-86.0,979.0,14.25,2.0625,-61.375,-0.75,-2.5625,3.375,264.125,8.5625,4.9375,-0.02679443359375,0.0821533203125,-0.73944091796875,-0.66766357421875,1.0,-2.0,13.0,146.0,-84.0,966.0,2465,2247.7893628392203,1852.035180202788,
107,2.9693050384521484,0.028280973434448242,35.35946180628736,36.035368079184416,101427.75,151.0,-116.0,1005.0,13.875,2.875,-61.375,-0.9375,-3.1875,3.125,264.0,8.6875,5.0,-0.02728271484375,0.08331298828125,-0.74005126953125,-0.66680908203125,-1.0,-35.0,41.0,148.0,-85.0,965.0,2493,2296.8314902713764,1840.2419853661495,
108,2.9968760013580322,0.02757096290588379,36.2700426319385,36.03752706186705,101427.75,138.0,-124.0,1006.0,13.875,2.875,-61.375,-0.375,-3.25,3.125,264.0,8.6875,5.0,-0.0274658203125,0.08349609375,-0.740234375,-0.66656494140625,-10.0,-39.0,41.0,149.0,-85.0,965.0,2469,2331.2651922171012,1781.1089705842248,
109,3.023998260498047,0.02712225914001465,36.8700850042634,36.04499427921228,101427.75,105.0,-125.0,963.0,12.375,2.875,-60.5625,1.625,-2.0,3.6875,263.8125,8.8125,5.0,-0.0281982421875,0.08380126953125,-0.74102783203125,-0.6656494140625,-50.0,-46.0,0.0,150.0,-84.0,965.0,2516,2368.212153773681,1739.2218348498377,
110,3.0508151054382324,0.026816844940185547,37.28999448781095,36.05593790456833,101427.75,67.0,-129.0,956.0,12.75,3.25,-61.75,1.75,-0.75,4.4375,263.75,8.8125,5.0,-0.02850341796875,0.083740234375,-0.74151611328125,-0.66510009765625,-83.0,-45.0,-8.0,150.0,-84.0,965.0,2469,2388.369723018945,1640.4672159692097,
111,3.075674057006836,0.024858951568603516,40.22695797287707,36.089649924746006,101427.75,44.0,-135.0,941.0,12.75,3.25,-61.75,3.1875,0.4375,6.6875,263.5625,8.75,4.9375,-0.0286865234375,0.083251953125,-0.74261474609375,-0.6639404296875,-123.0,-53.0,-30.0,150.0,-83.0,965.0,2526,2415.895778415156,1587.1494417305362,
112,3.1031222343444824,0.027448177337646484,36.43229157618609,36.092680707326174,101427.75,15.0,-106.0,899.0,12.75,3.25,-61.0,6.625,0.0625,9.6875,263.375,8.75,4.875,-0.02923583984375,0.08258056640625,-0.74365234375,-0.66278076171875,-134.0,-23.0,-65.0,149.0,-82.0,965.0,2479,2428.516622732125,1474.4151255668291,
113,3.131294012069702,0.028171777725219727,35.49651746346087,36.087317116960854,101427.75,24.0,-50.0,825.0,12.75,3.25,-61.0,6.625,-5.6875,12.5,262.875,8.8125,4.625,-0.0313720703125,0.081298828125,-0.74652099609375,-0.65960693359375,-94.0,36.0,-138.0,151.0,-78.0,965.0,2493,2441.4132981857,1372.7523195559872,
114,3.1571171283721924,0.025823116302490234,38.724993075431634,36.10889155030441,101427.75,79.0,-39.0,839.0,13.1875,1.375,-61.0,3.8125,-7.4375,11.625,262.75,8.875,4.5625,-0.031982421875,0.08148193359375,-0.7471923828125,-0.6588134765625,-72.0,38.0,-126.0,152.0,-78.0,965.0,2521,2457.3306385485603,1297.1169771334935,
115,3.185704231262207,0.02858710289001465,34.9808094876692,36.09876864006169,101427.75,111.0,-77.0,931.0,13.1875,1.375,-61.0,-12.625,-0.875,8.125,262.375,8.9375,4.9375,-0.03070068359375,0.08392333984375,-0.749267578125,-0.65625,-27.0,-26.0,30.0,153.0,-83.0,965.0,2385,2442.864510838848,1116.801593676371,
116,3.2089531421661377,0.023248910903930664,43.01276752843211,36.14886065980278,101427.75,140.0,-158.0,1072.0,12.0,1.75,-60.1875,-15.4375,0.4375,7.0625,262.3125,8.9375,5.0625,-0.02978515625,0.08489990234375,-0.74951171875,-0.65582275390625,-21.0,-43.0,68.0,152.0,-86.0,964.0,1766,2307.4916086710787,422.8451172495885,
117,3.2378182411193848,0.02886509895324707,34.64391380122079,36.13544408210837,101427.75,130.0,-214.0,1156.0,12.0,1.75,-60.1875,-18.5,6.6875,4.0,262.25,8.75,5.875,-0.02435302734375,0.0888671875,-0.75,-0.65496826171875,-21.0,-114.0,217.0,149.0,-99.0,964.0,1911,2228.193286936863,105.84018325046532,
118,3.264115333557129,0.02629709243774414,38.027017715643076,36.15068339861857,101427.75,125.0,-191.0,1153.0,13.1875,2.75,-60.1875,-0.375,5.5625,5.3125,262.125,8.5625,6.0625,-0.02178955078125,0.0892333984375,-0.7506103515625,-0.654296875,-7.0,7.0,54.0,146.0,-103.0,964.0,2526,2287.7546295494903,321.75018799520575,
119,3.290740966796875,0.026625633239746094,37.55779218453383,36.16206842188239,101425.75,142.0,-47.0,925.0,13.1875,2.75,-60.1875,5.0625,0.875,3.8125,262.0625,8.5,6.0,-0.02203369140625,0.08843994140625,-0.751220703125,-0.65374755859375,-3.0,54.0,-38.0,145.0,-102.0,964.0,2535,2337.2037036395923,475.29497403505167,
120,3.31571102142334,0.024970054626464844,40.047970056907154,36.19133248484587,101425.75,137.0,-35.0,897.0,12.375,2.875,-60.5625,0.9375,1.0,3.125,261.9375,8.5,6.0,-0.02197265625,0.088134765625,-0.751708984375,-0.6531982421875,-15.0,59.0,-68.0,145.0,-101.0,964.0,2549,2379.562962911674,597.4057113276554,
121,3.343463182449341,0.027752161026000977,36.03322995506912,36.19002016686133,101425.75,119.0,-71.0,924.0,12.375,2.875,-60.5625,-4.0,0.5,1.1875,261.9375,8.5,6.0625,-0.021484375,0.08856201171875,-0.7518310546875,-0.653076171875,-25.0,31.0,-40.0,145.0,-103.0,964.0,2127,2329.0503703293393,355.65195378029216,
122,3.374251127243042,0.030787944793701172,32.48024532656001,36.15617077667869,101425.75,118.0,-74.0,911.0,13.1875,2.75,-61.0,-2.5,-3.3125,-0.125,261.9375,8.5625,6.125,-0.02154541015625,0.0894775390625,-0.751708984375,-0.65301513671875,-27.0,28.0,-54.0,146.0,-104.0,964.0,1776,2218.4402962634713,-39.177475722573774,
123,3.4009361267089844,0.026684999465942383,37.474237212419034,36.166512812172265,101425.75,113.0,-84.0,920.0,13.5,2.375,-60.5625,-4.0,-3.9375,-1.6875,261.9375,8.625,6.1875,-0.0216064453125,0.0899658203125,-0.75152587890625,-0.6531982421875,-33.0,19.0,-42.0,147.0,-104.0,963.0,2117,2198.1522370107773,-111.2876826518231,
124,3.4285550117492676,0.027618885040283203,36.207109683879764,36.16683984216853,101425.75,118.0,-102.0,949.0,13.5,2.375,-60.5625,-6.0625,-4.125,-2.9375,262.0625,8.6875,6.3125,-0.021240234375,0.0914306640625,-0.75091552734375,-0.6536865234375,-29.0,4.0,-14.0,148.0,-107.0,963.0,2253,2209.121789608622,-60.44133497731625,
125,3.4563751220703125,0.027820110321044922,35.9452205063161,36.1650560443587,101425.75,113.0,-99.0,951.0,13.1875,4.75,-62.5625,-5.5,-3.0,-4.5625,262.125,8.75,6.4375,-0.02093505859375,0.0924072265625,-0.7503662109375,-0.6541748046875,-36.0,9.0,-11.0,149.0,-109.0,963.0,2572,2281.6974316868977,206.47754430952546,
126,3.4846930503845215,0.028317928314208984,35.31331772946941,36.15813449798582,101425.75,126.0,-68.0,947.0,13.1875,4.75,-62.5625,-4.9375,-2.75,-6.875,262.375,8.8125,6.5,-0.02093505859375,0.0936279296875,-0.748779296875,-0.6558837890625,-25.0,41.0,-14.0,151.0,-110.0,962.0,2554,2336.1579453495183,378.1479321463959,
127,3.5099241733551025,0.025231122970581055,39.633590671567745,36.18311784741547,101425.75,144.0,-69.0,970.0,12.0,4.6875,-61.75,-7.0,-1.25,-10.0,262.625,8.875,6.5625,-0.020751953125,0.093994140625,-0.74761962890625,-0.6571044921875,-7.0,41.0,7.0,151.0,-111.0,962.0,2549,2378.7263562796147,509.0470363660096,
128,3.538015127182007,0.028090953826904297,35.59864880922069,36.17847730966337,101425.75,178.0,-84.0,1019.0,12.0,4.6875,-61.75,-8.8125,0.0625,-13.8125,263.0,8.9375,6.75,-0.019775390625,0.09552001953125,-0.745361328125,-0.65948486328125,26.0,29.0,57.0,152.0,-114.0,962.0,2563,2415.5810850236917,589.3401872813573,
129,3.5655670166015625,0.027551889419555664,36.295151478439955,36.17937887560822,101425.75,194.0,-101.0,1041.0,12.375,5.0625,-61.375,-8.0625,0.5625,-16.5625,263.3125,8.9375,6.875,-0.01885986328125,0.096923828125,-0.74237060546875,-0.6627197265625,41.0,15.0,73.0,153.0,-116.0,961.0,2544,2441.2648680189536,623.6258479884629,
130,3.5942609310150146,0.02869391441345215,34.850595341958105,36.16877085306329,101425.75,183.0,-92.0,1013.0,12.375,5.0625,-61.375,-2.375,0.5,-21.3125,263.875,9.0,6.875,-0.018798828125,0.0972900390625,-0.739990234375,-0.665283203125,29.0,24.0,51.0,154.0,-116.0,961.0,2526,2458.211894415163,620.3246591079942,
131,3.6210711002349854,0.026810169219970703,37.29927967985771,36.17714106511162,101425.75,122.0,-71.0,943.0,11.25,5.0625,-61.75,-0.0625,0.9375,-24.0625,264.3125,9.0625,6.8125,-0.0191650390625,0.09722900390625,-0.73736572265625,-0.668212890625,-33.0,43.0,-18.0,155.0,-114.0,961.0,2595,2485.5695155321305,660.33414933893,
132,3.64729905128479,0.026227951049804688,38.12726347174751,36.19116451487628,101422.25,78.0,-66.0,970.0,12.0,6.5625,-61.75,-0.5,0.3125,-23.5,265.25,9.125,6.6875,-0.019775390625,0.096923828125,-0.73193359375,-0.67413330078125,-78.0,46.0,9.0,156.0,-113.0,961.0,2563,2501.0556124257046,653.344984046068,
133,3.6849169731140137,0.03761792182922363,26.583074007643507,36.09307915765756,101422.25,86.0,-33.0,1003.0,12.0,6.5625,-61.75,4.0625,-3.25,-19.125,266.0625,9.3125,6.5,-0.0211181640625,0.09661865234375,-0.7271728515625,-0.67926025390625,-72.0,76.0,42.0,158.0,-109.0,961.0,2591,2519.044489940564,635.8304518706551,
134,3.710146188735962,0.025229215621948242,39.636587002334174,36.11717522258967,101422.25,173.0,-65.0,1066.0,11.25,6.875,-62.1875,3.1875,-5.125,-17.8125,266.375,9.4375,6.3125,-0.0225830078125,0.09661865234375,-0.7252197265625,-0.68133544921875,12.0,41.0,105.0,161.0,-107.0,961.0,2595,2534.235591952451,632.4597503391401,
135,3.738119125366211,0.027972936630249023,35.74883871572613,36.114418902253284,101422.25,191.0,-75.0,1116.0,11.25,6.875,-62.1875,3.375,0.375,-18.375,266.9375,9.5625,6.1875,-0.0238037109375,0.096435546875,-0.72210693359375,-0.68463134765625,27.0,28.0,154.0,163.0,-104.0,961.0,2670,2561.3884735619613,666.2821738377845,
136,3.764909029006958,0.02678990364074707,37.327495216482,36.12305077019928,101422.25,201.0,-70.0,1037.0,12.375,6.875,-60.6875,8.75,-0.0625,-19.75,267.25,9.5625,6.0,-0.02490234375,0.09552001953125,-0.719970703125,-0.68695068359375,22.0,22.0,111.0,163.0,-101.0,961.0,2637,2576.5107788495693,656.101734282543,
137,3.7941832542419434,0.02927422523498535,34.15974263957324,36.10790276058288,101422.25,182.0,-163.0,1063.0,10.875,5.75,-60.6875,2.5625,-1.375,-22.5,267.875,9.6875,5.6875,-0.02691650390625,0.0946044921875,-0.71636962890625,-0.69073486328125,31.0,-30.0,75.0,165.0,-96.0,961.0,2666,2594.4086230796556,651.6301361245808,
138,3.8228580951690674,0.028674840927124023,34.87377672090529,36.09864571598672,101422.25,56.0,-231.0,1088.0,10.875,5.75,-61.875,-6.8125,4.6875,-24.5,268.625,9.6875,5.75,-0.02593994140625,0.0948486328125,-0.71197509765625,-0.69525146484375,-108.0,-134.0,126.0,165.0,-97.0,961.0,2689,2613.326898463725,652.4422936809854,
139,3.850874185562134,0.028016090393066406,35.69377404091637,36.095700171442864,101422.25,32.0,-173.0,970.0,12.0,5.75,-61.0625,1.8125,3.4375,-13.0,269.125,9.625,5.6875,-0.02520751953125,0.09423828125,-0.70892333984375,-0.698486328125,-131.0,-76.0,8.0,164.0,-96.0,962.0,2703,2631.26151877098,651.213492788566,
140,3.8782010078430176,0.02732682228088379,36.59408290218728,36.099211906982966,101422.25,62.0,-106.0,868.0,12.0,5.75,-61.0625,8.375,-2.25,-2.8125,269.25,9.6875,5.4375,-0.0269775390625,0.09307861328125,-0.70806884765625,-0.699462890625,-102.0,-13.0,-93.0,165.0,-92.0,962.0,2722,2649.409215016784,652.5019735999764,
141,3.9067370891571045,0.028536081314086914,35.04335402585033,36.09149957680448,101422.25,39.0,-80.0,852.0,11.25,6.5625,-61.0625,7.125,-1.0,2.3125,269.25,9.6875,5.25,-0.028564453125,0.09197998046875,-0.7083740234375,-0.69921875,-126.0,8.0,-110.0,165.0,-88.0,962.0,2731,2665.727372013427,644.4360715082562,
142,3.9336931705474854,0.02695608139038086,37.09738019847517,36.09839248856226,101422.25,56.0,-39.0,839.0,11.25,6.5625,-61.0625,8.6875,-2.6875,5.4375,269.125,9.75,5.0625,-0.02972412109375,0.09130859375,-0.70904541015625,-0.6986083984375,-109.0,46.0,-122.0,166.0,-86.0,962.0,2759,2684.381897610742,649.1958672080075,
143,3.9574739933013916,0.02378082275390625,42.05068976580045,36.134160386662955,101422.25,109.0,-53.0,902.0,10.875,5.375,-63.1875,0.875,2.5625,7.375,268.875,9.6875,5.0,-0.0302734375,0.09051513671875,-0.71038818359375,-0.69732666015625,-56.0,30.0,-60.0,165.0,-84.0,962.0,2755,2698.5055180885934,643.667078795611,
144,3.981579065322876,0.024105072021484375,41.485045102073116,36.16655543880872,101422.25,187.0,-155.0,1025.0,10.875,5.375,-63.1875,-6.25,6.75,5.9375,268.8125,9.5625,5.125,-0.02886962890625,0.0904541015625,-0.71112060546875,-0.6966552734375,23.0,-68.0,62.0,163.0,-86.0,962.0,2741,2707.0044144708745,614.5580808897279,
145,4.008305072784424,0.02672600746154785,37.4167372900256,36.17489122385432,101422.25,251.0,-241.0,1059.0,11.6875,5.0625,-61.0625,-0.375,7.9375,1.875,268.6875,9.3125,5.25,-0.02655029296875,0.0897216796875,-0.711669921875,-0.69622802734375,91.0,-152.0,95.0,159.0,-88.0,963.0,2816,2728.8035315767,634.6674565910732,
146,4.034418106079102,0.026113033294677734,38.2950532293702,36.18861411017508,101420.75,298.0,-220.0,909.0,11.6875,5.0625,-61.0625,11.5625,5.5,-0.3125,268.6875,9.125,5.0,-0.02703857421875,0.0869140625,-0.7120361328125,-0.6961669921875,142.0,-135.0,-54.0,156.0,-84.0,964.0,2788,2740.64282526136,616.5393491171856,
147,4.05870795249939,0.024289846420288086,41.16946573876854,36.218422640997375,101420.75,284.0,-220.0,852.0,12.75,4.6875,-61.5,11.625,3.5625,-2.75,268.6875,9.0625,4.75,-0.02801513671875,0.08502197265625,-0.71197509765625,-0.69647216796875,129.0,-140.0,-112.0,155.0,-80.0,964.0,2849,2762.3142602090884,644.1055540645124,
148,4.087069272994995,0.02836132049560547,35.259289148929014,36.21176694456807,101420.75,244.0,-225.0,803.0,12.75,4.6875,-61.5,4.0625,1.625,-4.0625,268.8125,9.0,4.5,-0.02899169921875,0.083251953125,-0.7115478515625,-0.69708251953125,89.0,-148.0,-162.0,154.0,-76.0,965.0,2816,2773.051408167271,617.5534191073002,
149,4.117426156997681,0.030356884002685547,32.94145736141872,36.18765566609382,101420.75,200.0,-232.0,844.0,12.375,3.1875,-61.5,-6.25,1.5625,-3.3125,268.875,9.0,4.625,-0.02801513671875,0.083740234375,-0.71087646484375,-0.69775390625,46.0,-154.0,-120.0,153.0,-78.0,965.0,2792,2776.841126533817,568.281961794906,
150,4.1439080238342285,0.02648186683654785,37.76168825907286,36.197714605936085,101420.75,183.0,-231.0,955.0,12.75,5.0625,-61.875,-14.3125,3.6875,-2.875,269.0,8.9375,4.9375,-0.02557373046875,0.08544921875,-0.71014404296875,-0.69842529296875,30.0,-147.0,-9.0,152.0,-83.0,965.0,2825,2786.4729012270536,547.824972950179,
151,4.172948122024536,0.029040098190307617,34.435145275567926,36.18544865272403,101420.75,140.0,-191.0,977.0,12.75,5.0625,-61.875,-9.25,5.6875,-3.0625,269.125,8.8125,5.3125,-0.02349853515625,0.08660888671875,-0.7095947265625,-0.69915771484375,13.0,-132.0,12.0,151.0,-88.0,964.0,2521,2733.378320981643,310.2105172455594,
152,4.200150966644287,0.027202844619750977,36.760861372341076,36.1891753908647,101420.75,141.0,-148.0,946.0,13.5,4.25,-60.25,-5.625,6.25,-2.8125,269.1875,8.6875,5.375,-0.02117919921875,0.08685302734375,-0.70892333984375,-0.6995849609375,-6.0,-56.0,-18.0,148.0,-91.0,964.0,2540,2694.7026567853145,137.01439252055908,
153,4.228577136993408,0.028426170349121094,35.17885060556245,36.18238358749337,101420.75,134.0,-104.0,919.0,13.5,4.25,-60.25,-5.375,8.375,-3.9375,269.3125,8.5,5.5,-0.01910400390625,0.0865478515625,-0.7081298828125,-0.70050048828125,-10.0,-10.0,-45.0,145.0,-93.0,965.0,2291,2613.962125428252,-160.7229557738802,
154,4.257284164428711,0.028707027435302734,34.83467601282328,36.17329594456738,101420.75,146.0,-95.0,935.0,13.1875,4.6875,-60.6875,-6.6875,11.0625,-4.5625,269.5,8.25,5.6875,-0.01629638671875,0.0859375,-0.707275390625,-0.7015380859375,5.0,1.0,-29.0,140.0,-96.0,965.0,2465,2584.1697003426016,-248.4316077459862,
155,4.284188270568848,0.02690410614013672,37.16904753464961,36.17954912598165,101420.75,160.0,-108.0,963.0,13.1875,4.6875,-60.6875,-6.4375,12.0625,-4.3125,269.6875,7.875,5.875,-0.012939453125,0.08502197265625,-0.706298828125,-0.70263671875,24.0,-8.0,-2.0,135.0,-99.0,966.0,2460,2559.335760274081,-315.893836859335,
156,4.312062978744507,0.02787470817565918,35.874815036565025,36.17757921648461,101420.75,174.0,-108.0,972.0,13.5,5.0625,-61.875,-5.6875,11.6875,-3.25,269.75,7.6875,6.0,-0.0108642578125,0.0843505859375,-0.705810546875,-0.7032470703125,42.0,-7.0,5.0,131.0,-101.0,966.0,2999,2647.268608219265,31.15301239378499,
157,4.337011337280273,0.0249483585357666,40.08279737387831,36.20004371453966,101420.75,178.0,-136.0,1008.0,13.5,5.0625,-61.875,-3.75,7.6875,-2.125,269.875,7.4375,6.125,-0.00836181640625,0.08355712890625,-0.70526123046875,-0.70391845703125,51.0,-32.0,41.0,126.0,-103.0,966.0,2966,2711.0148865754118,283.5506270232343,
158,4.363758087158203,0.026746749877929688,37.38772017399986,36.20732333099928,101420.75,163.0,-126.0,974.0,13.875,5.0625,-60.25,-1.625,4.0625,0.4375,269.875,7.25,6.1875,-0.007080078125,0.08294677734375,-0.70513916015625,-0.70416259765625,39.0,-21.0,6.0,124.0,-105.0,967.0,2239,2616.61190926033,-97.755645623963,
159,4.3995890617370605,0.03583097457885742,27.908813861570604,36.139738909438755,101420.75,162.0,-117.0,966.0,14.25,5.0625,-60.6875,-1.625,2.25,3.5,269.8125,7.25,6.25,-0.00640869140625,0.0833740234375,-0.70550537109375,-0.7037353515625,38.0,-10.0,0.0,123.0,-106.0,966.0,2713,2635.889527408264,-34.17853540305433,
160,4.428853988647461,0.02926492691040039,34.170596190507226,36.12672723240145,101423.5,149.0,-85.0,944.0,14.25,5.0625,-60.6875,-3.375,2.1875,4.875,269.6875,7.1875,6.375,-0.00567626953125,0.0836181640625,-0.70623779296875,-0.7030029296875,26.0,22.0,-22.0,123.0,-108.0,966.0,2975,2703.7116219266113,200.99145859533778,
161,4.457201242446899,0.028347253799438477,35.276785789380725,36.12132170895985,101423.5,136.0,-77.0,958.0,13.5,5.0625,-60.25,-3.6875,1.8125,6.75,269.5625,7.125,6.5,-0.00445556640625,0.083984375,-0.70721435546875,-0.70196533203125,16.0,39.0,-10.0,121.0,-110.0,966.0,2956,2754.169297541289,358.89077414470796,
162,4.485300064086914,0.02809882164001465,35.58868100632133,36.117984902974115,101423.5,115.0,-62.0,974.0,13.5,5.0625,-60.25,-3.8125,2.4375,8.8125,269.3125,7.0,6.5625,-0.00372314453125,0.0838623046875,-0.70855712890625,-0.70062255859375,-4.0,49.0,7.0,120.0,-111.0,966.0,2966,2796.535438033031,473.7772026731973,
163,4.5121071338653564,0.026807069778442383,37.30359223387319,36.12502876463483,101423.5,114.0,-72.0,1023.0,15.6875,5.1875,-61.0,-2.8125,1.625,13.0625,269.125,6.9375,6.625,-0.00299072265625,0.08380126953125,-0.70977783203125,-0.69940185546875,-4.0,50.0,39.0,119.0,-112.0,966.0,2919,2821.028350426425,517.7668440601922,
164,4.539319038391113,0.027211904525756836,36.74862224558637,36.12876702716342,101423.5,112.0,-73.0,1047.0,15.6875,5.1875,-61.0,0.0625,1.875,15.5625,268.6875,6.875,6.6875,-0.00213623046875,0.083740234375,-0.7122802734375,-0.6968994140625,-4.0,41.0,80.0,117.0,-114.0,966.0,2511,2759.0226803411397,238.12786494931305,
165,4.567418098449707,0.02809906005859375,35.58837903882704,36.12544252430165,101423.5,126.0,-63.0,1043.0,15.0,4.0,-59.5,6.625,-0.3125,19.6875,268.1875,6.75,6.625,-0.00225830078125,0.082763671875,-0.7156982421875,-0.6934814453125,11.0,49.0,75.0,115.0,-113.0,967.0,2272,2661.618144272912,-132.33187651533655,
166,4.59138298034668,0.023964881896972656,41.72772493931314,36.15468383068012,101423.5,137.0,-40.0,1020.0,15.0,4.0,-59.5,11.75,-1.75,22.0625,267.75,6.75,6.5,-0.00341796875,0.0816650390625,-0.71832275390625,-0.69085693359375,22.0,69.0,53.0,115.0,-110.0,967.0,2277,2584.69451541833,-440.0834914815845,
167,4.619080305099487,0.027697324752807617,36.10456998734624,36.15438333376261,101423.5,139.0,-28.0,999.0,15.375,4.0,-61.0,14.875,-1.9375,25.0,267.0,6.75,6.0625,-0.0062255859375,0.0791015625,-0.7227783203125,-0.68646240234375,19.0,71.0,16.0,115.0,-103.0,968.0,2272,2522.155612334664,-621.869162665034,
168,4.64490008354187,0.025819778442382812,38.729999261283886,36.168700505586585,101423.5,142.0,-51.0,996.0,15.375,4.0,-61.0,16.0625,-2.0,27.0625,266.5,6.6875,5.8125,-0.0079345703125,0.07745361328125,-0.72607421875,-0.6832275390625,27.0,48.0,27.0,115.0,-99.0,968.0,2314,2480.5244898677315,-720.9195806376022,
169,4.670641183853149,0.025741100311279297,38.84837819313488,36.18346889592998,101423.5,173.0,-46.0,975.0,15.6875,4.75,-60.5625,25.5,-4.5,30.625,265.3125,6.75,5.125,-0.01312255859375,0.072998046875,-0.7333984375,-0.67578125,57.0,58.0,-6.0,115.0,-87.0,969.0,2319,2448.219591894185,-774.3269119705383,
170,4.698393106460571,0.027751922607421875,36.03353951890034,36.182583310502444,101423.5,171.0,-6.0,938.0,15.6875,4.75,-60.5625,26.0625,-5.875,31.0,264.9375,6.75,4.9375,-0.0147705078125,0.07177734375,-0.73529052734375,-0.67376708984375,55.0,76.0,-31.0,116.0,-83.0,970.0,2399,2438.3756735153484,-732.3653429659491,
171,4.723954200744629,0.025561094284057617,39.12195576946395,36.198488116808065,101423.5,237.0,-10.0,965.0,16.5,3.6875,-61.0,7.5,-7.5625,24.5625,263.8125,7.0,4.4375,-0.01947021484375,0.06982421875,-0.74200439453125,-0.66650390625,104.0,21.0,77.0,119.0,-76.0,970.0,2497,2450.100538812279,-613.25884251441,
172,4.751632213592529,0.02767801284790039,36.12976139202343,36.19808778717688,101423.5,238.0,-119.0,1143.0,15.0,1.0,-60.5625,0.625,-9.1875,20.0625,263.4375,7.125,4.5,-0.02056884765625,0.07061767578125,-0.744384765625,-0.6636962890625,116.0,-43.0,173.0,121.0,-76.0,970.0,3332,2626.4804310498234,85.32338382635987,
173,4.776638984680176,0.025006771087646484,39.989169193219304,36.21793494439341,101423.0,231.0,-272.0,1299.0,15.0,1.0,-60.5625,7.0,-6.375,10.875,262.875,7.375,4.5,-0.02252197265625,0.0721435546875,-0.74749755859375,-0.65997314453125,93.0,-214.0,328.0,126.0,-76.0,969.0,3294,2759.984344839859,610.6621050943943,
174,4.808594226837158,0.03195524215698242,31.29377005148101,36.18521168388294,101423.0,204.0,-298.0,1272.0,15.0,1.75,-61.375,13.625,-5.9375,8.9375,262.75,7.4375,4.375,-0.02362060546875,0.0716552734375,-0.748046875,-0.6593017578125,77.0,-223.0,302.0,127.0,-74.0,969.0,3331,2874.1874758718877,906.9805467525005,
175,4.8343281745910645,0.02573394775390625,38.85917580788615,36.19944564785431,101423.0,142.0,-202.0,953.0,15.0,1.75,-61.375,29.4375,-8.25,2.75,262.5,7.6875,3.375,-0.03094482421875,0.066650390625,-0.749755859375,-0.6575927734375,0.0,-117.0,-96.0,131.0,-58.0,970.0,3318,2962.94998069751,1161.2062700939705,
176,4.861129999160767,0.02680182456970215,37.31089267446515,36.20557360745031,101423.0,121.0,-116.0,716.0,15.0,1.75,-61.375,26.5625,-6.6875,2.4375,262.4375,7.75,3.125,-0.0328369140625,0.0653076171875,-0.75,-0.6573486328125,-7.0,-74.0,-221.0,132.0,-53.0,970.0,3354,3041.159984558008,1336.8941490954285,
177,4.889615058898926,0.02848505973815918,35.10612261979494,36.19916861918737,101423.0,126.0,-90.0,716.0,15.0,1.75,-61.375,8.625,-3.8125,2.875,262.25,7.8125,2.625,-0.03643798828125,0.06219482421875,-0.7510986328125,-0.65625,-6.0,-45.0,-253.0,133.0,-44.0,970.0,3359,3104.7279876464067,1426.3673452975684,
178,4.914291143417358,0.024676084518432617,40.52506787505193,36.22089021698056,101423.0,138.0,-80.0,766.0,14.6875,0.0,-61.75,1.6875,-5.9375,3.375,262.125,7.9375,2.5,-0.03802490234375,0.0625,-0.75164794921875,-0.655517578125,0.0,-49.0,-149.0,136.0,-43.0,970.0,3340,3151.7823901171255,1474.4188961624004,
179,4.945422172546387,0.03113102912902832,32.12229174484771,36.19508987396182,101423.0,110.0,-97.0,863.0,14.6875,0.0,-61.75,3.0,-7.875,3.5,262.0625,8.125,2.5,-0.03924560546875,0.06298828125,-0.75201416015625,-0.65496826171875,-28.0,-55.0,-106.0,138.0,-42.0,969.0,3401,3201.6259120937,1487.0858219983866,
180,4.970173120498657,0.024750947952270508,40.402492944043615,36.21604230597517,101423.0,19.0,-86.0,866.0,14.6875,-0.375,-61.75,3.25,-10.25,3.25,262.0,8.375,2.375,-0.041748046875,0.06390380859375,-0.75250244140625,-0.6541748046875,-124.0,-46.0,-102.0,143.0,-40.0,969.0,3411,3243.50072967496,1507.561941984544,
181,4.996018171310425,0.025845050811767578,38.692127451523035,36.22885141599171,101423.0,-2.0,-100.0,919.0,14.6875,-0.375,-61.75,-0.6875,-9.75,4.875,261.875,8.5625,2.375,-0.04302978515625,0.06500244140625,-0.7529296875,-0.65350341796875,-149.0,-59.0,-49.0,146.0,-40.0,968.0,3397,3274.2005837399684,1475.590014408736,
182,5.024306297302246,0.02828812599182129,35.350521285472276,36.22390619332328,101423.0,10.0,-111.0,960.0,14.25,-0.75,-60.5625,-4.8125,-8.8125,5.875,261.625,8.875,2.5625,-0.044189453125,0.0679931640625,-0.7540283203125,-0.65179443359375,-125.0,-76.0,26.0,152.0,-44.0,967.0,3434,3306.160466991975,1441.0108662859902,
183,5.050316095352173,0.026009798049926758,38.44704976487951,36.23535567771999,101423.0,23.0,-133.0,1025.0,13.75,-0.375,-62.1875,-9.0,-3.1875,5.125,261.5625,9.0,2.75,-0.04376220703125,0.069580078125,-0.75445556640625,-0.65118408203125,-130.0,-86.0,58.0,153.0,-47.0,967.0,3406,3326.1283735935804,1373.6804895386292,
184,5.074820041656494,0.02450394630432129,40.80975315488874,36.257443316145604,101423.0,54.0,-151.0,1058.0,13.75,-0.375,-62.1875,-10.8125,-2.1875,4.5625,261.4375,9.0625,3.0625,-0.0423583984375,0.07196044921875,-0.7550048828125,-0.650390625,-90.0,-117.0,112.0,154.0,-52.0,966.0,2792,3219.3026988748647,800.359498997244,
185,5.101140975952148,0.026320934295654297,37.99257232920886,36.26639625764685,101423.0,92.0,-194.0,1116.0,13.0625,-0.75,-61.375,-10.0,0.8125,2.8125,261.4375,9.0,3.3125,-0.04107666015625,0.07330322265625,-0.75518798828125,-0.65008544921875,-61.0,-138.0,149.0,154.0,-56.0,966.0,2769,3129.242159099892,378.16039195669515,
186,5.128056049346924,0.02691507339477539,37.15390202852334,36.27105441323867,101423.0,102.0,-176.0,1068.0,13.0625,-0.75,-61.375,-2.5625,0.375,3.5625,261.3125,9.0,3.375,-0.0406494140625,0.0738525390625,-0.7557373046875,-0.6494140625,-38.0,-92.0,61.0,154.0,-57.0,966.0,2750,3053.393727279914,58.537832275365986,
187,5.1568591594696045,0.028803110122680664,34.718472961451546,36.262382628117656,101428.75,172.0,-58.0,895.0,13.0625,0.6875,-61.0,3.5,-1.1875,5.5,261.1875,9.0625,3.3125,-0.0411376953125,0.07354736328125,-0.75634765625,-0.648681640625,18.0,-1.0,-71.0,154.0,-56.0,966.0,3088,3060.3149818239312,76.71358792240822,
188,5.185370206832886,0.02851104736328125,35.07412362857907,36.255849148874255,101428.75,195.0,-20.0,856.0,13.0625,0.6875,-61.0,-4.125,-1.0,2.875,261.0625,9.0625,3.4375,-0.04083251953125,0.07452392578125,-0.7569580078125,-0.64788818359375,26.0,29.0,-102.0,155.0,-58.0,966.0,3462,3140.651985459145,350.81722887527746,
189,5.212883234024048,0.02751302719116211,36.34641848212274,36.25632716390288,101428.75,171.0,-42.0,899.0,13.375,1.0,-61.375,-8.6875,-3.0,-1.5625,261.125,9.125,3.625,-0.03997802734375,0.07666015625,-0.75653076171875,-0.648193359375,20.0,11.0,-53.0,156.0,-62.0,966.0,2816,3075.721588367316,79.73676749674735,
190,5.240509271621704,0.02762603759765625,36.19773543220105,36.256018289841414,101428.75,174.0,-64.0,952.0,13.375,1.0,-61.375,-11.75,-1.375,-4.5625,261.25,9.1875,3.9375,-0.0389404296875,0.07830810546875,-0.7559814453125,-0.64874267578125,17.0,2.0,-13.0,157.0,-66.0,965.0,2750,3010.5772706938533,-164.04458685845418,
191,5.268982172012329,0.028472900390625,35.12111468381565,36.249885417064014,101428.75,173.0,-76.0,960.0,13.375,-0.75,-61.75,-11.0,-1.0,-7.5625,261.375,9.25,4.125,-0.03741455078125,0.08050537109375,-0.75445556640625,-0.6502685546875,15.0,-5.0,-4.0,158.0,-71.0,965.0,3285,3065.461816555083,45.120514783529416,
192,5.294562101364136,0.02557992935180664,39.09314940814615,36.263622245649266,101428.75,142.0,-78.0,932.0,13.375,-0.75,-61.75,-9.5,0.5,-12.6875,261.75,9.25,4.375,-0.0364990234375,0.08172607421875,-0.75299072265625,-0.65191650390625,-15.0,-4.0,-32.0,158.0,-74.0,964.0,3411,3134.5694532440666,310.7719799378091,
193,5.32326602935791,0.028703927993774414,34.83843745068235,36.25593741428691,101428.75,118.0,-70.0,879.0,13.0625,-0.375,-62.1875,-11.4375,2.25,-15.625,262.1875,9.25,4.5,-0.03546142578125,0.08270263671875,-0.7513427734375,-0.65380859375,-39.0,7.0,-85.0,158.0,-77.0,964.0,3411,3189.855562595253,472.30294819631774,
194,5.350565195083618,0.027299165725708008,36.6311560597724,36.257851820637086,101428.75,111.0,-82.0,903.0,12.6875,-0.75,-61.0,-15.1875,5.5,-16.375,262.6875,9.1875,4.9375,-0.03192138671875,0.0850830078125,-0.74737548828125,-0.65814208984375,-45.0,0.0,-61.0,156.0,-83.0,964.0,3308,3213.4844500762024,511.6279998600316,
195,5.379597187042236,0.029031991958618164,34.444760160632015,36.24806713589893,101428.75,117.0,-67.0,922.0,12.6875,-0.75,-61.0,-16.4375,4.9375,-17.75,263.25,9.0625,5.3125,-0.028564453125,0.0869140625,-0.74420166015625,-0.66168212890625,-36.0,22.0,-41.0,154.0,-87.0,964.0,3486,3267.987560060962,648.199855017388,
196,5.404945135116577,0.02534794807434082,39.45092506372452,36.26308780205085,101428.75,127.0,-42.0,966.0,13.75,0.6875,-61.0,-16.75,5.4375,-17.6875,263.625,8.9375,5.5625,-0.0262451171875,0.088134765625,-0.74200439453125,-0.6640625,-23.0,40.0,-1.0,152.0,-94.0,964.0,3486,3311.59004804877,755.3957181355445,
197,5.432143211364746,0.027198076248168945,36.767306293117805,36.265612362327,101428.75,146.0,-23.0,984.0,13.75,0.6875,-61.0,-16.0,3.5,-19.0,264.1875,8.875,5.9375,-0.02313232421875,0.0902099609375,-0.73858642578125,-0.667724609375,-5.0,76.0,20.0,151.0,-102.0,963.0,3481,3345.4720384390157,804.4310981718544,
198,5.458325147628784,0.026181936264038086,38.19427218503847,36.27486356066852,101428.75,149.0,-49.0,1052.0,13.0625,2.1875,-62.1875,-16.9375,4.75,-21.875,264.875,8.8125,6.3125,-0.02008056640625,0.0926513671875,-0.73455810546875,-0.671875,-1.0,57.0,89.0,150.0,-104.0,963.0,3453,3366.9776307512125,806.1270329819204,
199,5.486748218536377,0.028423070907592773,35.182686742440126,36.26920574333999,101428.75,152.0,-79.0,1083.0,13.0625,2.1875,-62.1875,-8.875,0.75,-24.3125,265.5625,8.8125,6.5625,-0.01800537109375,0.09442138671875,-0.73028564453125,-0.67633056640625,1.0,31.0,121.0,151.0,-111.0,962.0,3387,3370.98210460097,739.60314458616,
200,5.514506101608276,0.027757883071899414,36.02580201846683,36.26798054347443,101428.75,178.0,-84.0,1076.0,14.1875,4.75,-61.6875,-4.75,-2.0625,-26.75,266.0625,8.9375,6.625,-0.0179443359375,0.09515380859375,-0.72723388671875,-0.67950439453125,26.0,27.0,114.0,152.0,-111.0,962.0,3354,3367.5856836807766,653.4069513633167,
201,5.540670156478882,0.02616405487060547,38.22037543284126,36.27720010817903,101427.25,133.0,-73.0,1022.0,14.1875,4.75,-61.6875,0.375,-1.6875,-29.375,266.9375,9.0625,6.5,-0.01885986328125,0.095458984375,-0.72222900390625,-0.68475341796875,-21.0,36.0,60.0,154.0,-109.0,962.0,3378,3369.6685469446215,596.0270378189277,
202,5.568741083145142,0.028070926666259766,35.62404661196895,36.273907690086645,101427.25,105.0,-88.0,1031.0,13.75,6.25,-61.375,5.0,-2.8125,-29.6875,267.75,9.25,6.25,-0.0205078125,0.09521484375,-0.717041015625,-0.690185546875,-52.0,17.0,68.0,157.0,-106.0,962.0,3430,3381.7348375556976,579.4093439532887,
203,5.598685264587402,0.029944181442260742,33.39546956487121,36.25851256258467,101427.25,104.0,-16.0,982.0,13.1875,4.75,-61.0,13.125,-9.25,-27.8125,268.5625,9.5,5.8125,-0.02423095703125,0.09423828125,-0.71240234375,-0.69500732421875,-57.0,81.0,20.0,162.0,-98.0,962.0,3580,3421.3878700445584,653.89157352162,
204,5.628003120422363,0.029317855834960938,34.1089063821482,36.247314657617046,101427.25,202.0,-72.0,1039.0,13.1875,4.75,-61.0,-0.6875,-6.25,-26.4375,269.3125,9.8125,5.5625,-0.02716064453125,0.09466552734375,-0.707763671875,-0.69952392578125,35.0,21.0,77.0,167.0,-94.0,961.0,3678,3472.710296035647,763.5575985129348,
205,5.657373905181885,0.029370784759521484,34.047438915496386,36.235893797337624,101427.25,242.0,-154.0,1181.0,13.1875,5.1875,-61.375,-9.5625,-1.0625,-26.4375,270.0625,9.9375,5.625,-0.02691650390625,0.0963134765625,-0.70281982421875,-0.70428466796875,72.0,-59.0,220.0,170.0,-95.0,961.0,3711,3520.368236828518,849.4649214600038,
206,5.684409141540527,0.027035236358642578,36.98876483764573,36.239474476703855,101427.25,212.0,-301.0,1324.0,13.1875,5.1875,-61.375,-16.375,5.375,-27.5625,270.625,10.0,5.8125,-0.02581787109375,0.0977783203125,-0.69927978515625,-0.70770263671875,75.0,-114.0,295.0,171.0,-98.0,960.0,3725,3561.2945894628147,915.8999526392594,
207,5.714053153991699,0.029644012451171875,33.73362501608545,36.226474346916916,101427.25,132.0,-346.0,1331.0,12.75,7.0,-61.375,-4.3125,6.375,-29.375,271.5,9.875,6.0,-0.02288818359375,0.09814453125,-0.694091796875,-0.71282958984375,-36.0,-245.0,370.0,168.0,-101.0,960.0,3683,3585.635671570252,906.4212510051366,
208,5.742279291152954,0.028226137161254883,35.42815633209166,36.22255021981647,101427.25,-6.0,-235.0,986.0,12.75,7.0,-61.375,27.0,-11.0625,-24.3125,272.25,10.125,5.375,-0.02783203125,0.0960693359375,-0.68951416015625,-0.71734619140625,-178.0,-144.0,25.0,172.0,-90.0,961.0,3758,3620.1085372562015,937.9101333783254,
209,5.768859148025513,0.026579856872558594,37.6224749739873,36.229000333893346,101427.25,52.0,-93.0,660.0,12.75,6.25,-61.375,33.8125,-20.1875,-17.3125,272.6875,10.75,4.25,-0.037841796875,0.093505859375,-0.68646240234375,-0.72015380859375,-130.0,-20.0,-299.0,182.0,-72.0,960.0,3734,3642.8868298049615,929.8166941770812,
210,5.792268991470337,0.02340984344482422,42.71707336945452,36.25522231602932,101427.25,59.0,-62.0,570.0,12.75,6.25,-61.375,26.5,-16.125,-12.1875,272.9375,11.0625,3.6875,-0.04351806640625,0.0921630859375,-0.68511962890625,-0.72125244140625,-128.0,0.0,-389.0,188.0,-62.0,960.0,3716,3657.5094638439696,899.2986378692722,
211,5.819284915924072,0.02701592445373535,37.015205669252424,36.258750524933575,101427.25,187.0,-28.0,565.0,12.0,5.875,-60.5625,5.5625,-19.25,-13.375,273.25,11.6875,3.1875,-0.04974365234375,0.09320068359375,-0.682861328125,-0.722900390625,-10.0,25.0,-393.0,198.0,-54.0,958.0,3725,3671.0075710751757,859.332295613217,
212,5.844341993331909,0.025057077407836914,39.908884173668135,36.27440013638507,101427.25,229.0,-59.0,748.0,12.0,5.875,-60.5625,-18.375,5.3125,-4.1875,273.375,11.6875,3.4375,-0.048583984375,0.09466552734375,-0.68182373046875,-0.7237548828125,30.0,-1.0,-210.0,199.0,-57.0,958.0,3720,3680.806056860141,812.5037294788459,
213,5.871575117111206,0.027233123779296875,36.71998879394873,36.27646683413211,101427.25,226.0,-257.0,1044.0,10.875,4.375,-61.75,-22.4375,1.8125,-6.3125,273.6875,11.5625,4.0625,-0.04364013671875,0.09796142578125,-0.679931640625,-0.72540283203125,18.0,-171.0,50.0,197.0,-68.0,958.0,3702,3685.044845488113,746.8181836228666,
214,5.901646137237549,0.030071020126342773,33.25460845021288,36.26106937346288,101427.25,226.0,-303.0,1122.0,10.5,5.5,-61.375,-14.6875,-2.5625,-2.375,273.8125,11.625,4.5625,-0.04083251953125,0.1011962890625,-0.6788330078125,-0.72613525390625,28.0,-226.0,165.0,198.0,-76.0,957.0,,3685.044845488113,746.8181836228666,
215,5.925000190734863,0.023354053497314453,42.819119178389855,36.2869186630919,101423.25,147.0,-253.0,1045.0,10.5,5.5,-61.375,9.8125,-6.5625,2.75,273.8125,11.8125,4.5625,-0.04071044921875,0.1021728515625,-0.6785888671875,-0.7261962890625,-32.0,-215.0,152.0,199.0,-78.0,956.0,3781,3704.2358763904904,754.3106691970861,
216,5.950937032699585,0.02593684196472168,38.55519501411014,36.296804824704,101423.25,158.0,-93.0,802.0,10.875,6.25,-60.5625,23.4375,-11.4375,7.125,273.625,12.0,4.1875,-0.04541015625,0.1009521484375,-0.67987060546875,-0.72491455078125,-45.0,-23.0,-154.0,204.0,-70.0,956.0,3874,3738.1887011123927,809.7853801206618,
217,5.975619077682495,0.024682044982910156,40.51528148062285,36.31422906631431,101423.25,232.0,50.0,674.0,10.875,6.25,-60.5625,15.0625,-13.75,9.125,273.3125,12.375,3.625,-0.05108642578125,0.10009765625,-0.68182373046875,-0.72283935546875,22.0,111.0,-281.0,210.0,-61.0,955.0,3912,3772.9509608899143,869.647116087478,
218,6.001219034194946,0.025599956512451172,39.06256635684616,36.32595290354109,101423.25,287.0,29.0,752.0,10.5,4.375,-60.5625,-3.9375,-2.875,8.8125,273.125,12.5,3.625,-0.05206298828125,0.1007080078125,-0.682861328125,-0.7216796875,75.0,90.0,-202.0,212.0,-61.0,955.0,3800,3778.3607687119315,803.8145021812636,
219,6.027734041213989,0.02651500701904297,37.71449124195231,36.33206085447878,101423.25,294.0,-140.0,1076.0,10.5,4.375,-60.5625,-21.8125,11.875,6.5,273.0,12.1875,4.25,-0.04681396484375,0.1025390625,-0.68389892578125,-0.7208251953125,86.0,-68.0,120.0,207.0,-71.0,955.0,3664,3755.488614969546,637.1718877629578,
220,6.053725242614746,0.025991201400756836,38.474558546988945,36.3412595027152,101423.25,263.0,-187.0,1161.0,10.1875,4.375,-60.1875,-15.5,14.8125,5.125,272.9375,11.9375,4.625,-0.04290771484375,0.10284423828125,-0.684326171875,-0.7205810546875,60.0,-110.0,204.0,202.0,-77.0,956.0,3509,3706.190891975637,383.78388603042333,
221,6.08089017868042,0.027164936065673828,36.81216099984202,36.343363143578095,101423.25,201.0,-185.0,1117.0,10.1875,4.375,-60.1875,5.5,7.125,4.125,272.8125,11.625,4.6875,-0.04071044921875,0.10150146484375,-0.6851806640625,-0.72015380859375,3.0,-106.0,160.0,198.0,-78.0,957.0,3547,3674.3527135805098,228.2022825250695,
222,6.110478162765503,0.029587984085083008,33.79750364622364,36.331035654912874,101423.25,152.0,-90.0,878.0,10.375,4.375,-59.0,13.875,4.125,9.9375,272.5625,11.4375,4.3125,-0.0419921875,0.09832763671875,-0.68707275390625,-0.71868896484375,-42.0,-16.0,-79.0,195.0,-73.0,958.0,3528,3645.082170864408,106.4549268551231,
223,6.136977195739746,0.026499032974243164,37.73722614602546,36.337107485881695,101423.25,143.0,-74.0,840.0,10.375,4.375,-59.0,6.625,4.625,14.75,272.125,11.25,4.1875,-0.04229736328125,0.095947265625,-0.6898193359375,-0.71630859375,-48.0,-4.0,-118.0,192.0,-70.0,959.0,3598,3635.6657366915265,60.27442358249162,
224,6.166451930999756,0.029474735260009766,33.927361558248265,36.325589253994764,101423.25,178.0,-67.0,862.0,10.375,4.375,-60.1875,5.8125,-1.1875,16.375,271.625,11.25,4.0625,-0.04296875,0.0950927734375,-0.69293212890625,-0.71343994140625,-13.0,1.0,-97.0,191.0,-69.0,959.0,3725,3653.5325893532213,114.86449824036943,
225,6.193885326385498,0.027433395385742188,36.4519224083988,36.32614879734962,101423.25,171.0,-35.0,876.0,10.375,4.375,-60.1875,4.3125,2.625,19.8125,271.0625,11.125,4.0625,-0.0428466796875,0.09417724609375,-0.69659423828125,-0.7099609375,-13.0,15.0,-49.0,189.0,-68.0,959.0,3739,3670.6260714825776,165.6870768431972,
226,6.220972061157227,0.027086734771728516,36.91844027814453,36.32872769371664,101423.25,197.0,-72.0,1006.0,11.1875,3.6875,-60.5625,6.0625,-1.5625,20.625,270.625,11.0625,4.125,-0.04278564453125,0.09381103515625,-0.69915771484375,-0.70745849609375,-1.0,-10.0,3.0,188.0,-69.0,959.0,3734,3683.3008571860623,195.9117010621157,
227,6.250938177108765,0.029966115951538086,33.37102484743848,36.31454888344359,101423.25,180.0,-44.0,1001.0,10.375,2.5,-60.1875,18.25,-4.8125,16.1875,270.0625,11.125,3.875,-0.04510498046875,0.09320068359375,-0.7015380859375,-0.7041015625,-9.0,20.0,41.0,189.0,-65.0,959.0,3819,3710.4406857488502,266.8889202883057,
228,6.275490999221802,0.02455282211303711,40.728515662931386,36.33181850285075,101423.25,193.0,-24.0,978.0,10.375,2.5,-60.1875,25.625,-6.125,12.4375,269.625,11.3125,3.1875,-0.05035400390625,0.0892333984375,-0.70556640625,-0.70123291015625,29.0,49.0,23.0,192.0,-54.0,960.0,3846,3737.55254859908,350.62262133415896,
229,6.302029132843018,0.02653813362121582,37.681625025829,36.33750260000652,101425.25,243.0,3.0,1002.0,10.375,2.1875,-60.1875,31.1875,-5.5625,6.4375,269.375,11.375,2.6875,-0.0543212890625,0.08648681640625,-0.70697021484375,-0.6998291015625,49.0,48.0,42.0,194.0,-45.0,960.0,3865,3763.0420388792645,411.6089006844849,
230,6.328303098678589,0.02627396583557129,38.06048946924257,36.34465612875373,101425.25,316.0,-1.0,983.0,10.375,2.1875,-60.1875,30.5625,-2.5,-9.0625,269.375,11.5,1.75,-0.060546875,0.0816650390625,-0.70709228515625,-0.6998291015625,145.0,34.0,41.0,196.0,-30.0,960.0,3856,3781.633631103412,441.20852062239805,
231,6.360464096069336,0.03216099739074707,31.0935630462663,36.31810454566582,101425.25,327.0,36.0,1012.0,10.75,0.25,-60.5625,42.0,0.5,-17.375,269.25,11.5625,0.9375,-0.0660400390625,0.07666015625,-0.70782470703125,-0.6990966796875,130.0,52.0,52.0,196.0,-15.0,960.0,3931,3811.50690488273,489.974320725718,
232,6.39285135269165,0.03238725662231445,30.87634163219034,36.29053566251287,101425.25,365.0,10.0,1106.0,10.75,0.25,-60.5625,49.25,5.9375,-29.6875,270.0625,11.375,-1.0625,-0.0767822265625,0.06378173828125,-0.7030029296875,-0.7041015625,171.0,-7.0,145.0,193.0,18.0,961.0,3987,3846.6055239061843,549.3485838317735,
233,6.421154022216797,0.028302669525146484,35.33235616207565,36.28631227250341,101425.25,320.0,25.0,1088.0,10.0625,-3.375,-59.75,61.0,13.3125,-27.625,270.125,11.0,-2.9375,-0.08575439453125,0.05010986328125,-0.7027587890625,-0.7044677734375,147.0,19.0,133.0,187.0,49.0,961.0,4025,3882.284419124948,620.475668782469,
234,6.445633172988892,0.024479150772094727,40.851090354815774,36.303648333665926,101425.25,233.0,95.0,1053.0,10.0625,-3.375,-59.75,56.5,31.6875,-21.5,270.4375,10.375,-4.0625,-0.08905029296875,0.039794921875,-0.70086669921875,-0.70660400390625,56.0,26.0,91.0,177.0,68.0,962.0,4048,3915.4275352999584,693.8213452547736,
235,6.472412109375,0.0267789363861084,37.342782610244036,36.30794764437403,101425.25,194.0,183.0,929.0,11.5625,-5.25,-59.5,50.3125,29.3125,-10.9375,270.125,9.4375,-5.75,-0.093994140625,0.02325439453125,-0.70263671875,-0.70489501953125,32.0,105.0,-15.0,161.0,97.0,962.0,4104,3953.142028239967,765.2756218407294,
236,6.499504089355469,0.02709197998046875,36.911292593635594,36.31046257613836,101425.25,156.0,133.0,1046.0,11.5625,-5.25,-59.5,31.8125,24.375,-10.3125,270.25,8.9375,-6.5,-0.09527587890625,0.01593017578125,-0.7020263671875,-0.70556640625,3.0,23.0,84.0,153.0,109.0,962.0,3800,3922.513622591974,575.6946554016931,
237,6.525445222854614,0.025941133499145508,38.548816690409446,36.31936088742803,101425.25,171.0,103.0,1071.0,12.6875,-8.5625,-59.875,28.875,23.25,8.375,269.5,8.0625,-7.6875,-0.09759521484375,0.00238037109375,-0.7066650390625,-0.70074462890625,61.0,-33.0,93.0,138.0,130.0,961.0,3448,3827.6108980735794,152.28641677352135,
238,6.5536229610443115,0.028177738189697266,35.48900885045606,36.3157907335693,101425.25,237.0,83.0,1044.0,13.75,-9.6875,-59.1875,20.1875,17.3125,15.0,268.75,7.75,-8.125,-0.09796142578125,-0.002685546875,-0.711181640625,-0.6961669921875,104.0,-54.0,83.0,132.0,137.0,961.0,3528,3767.6887184588636,-75.6001011723574,
239,6.578747272491455,0.025124311447143555,39.802085804572066,36.32910493451554,101425.25,242.0,31.0,981.0,13.75,-9.6875,-59.1875,10.8125,16.25,19.5,268.1875,7.375,-8.4375,-0.0975341796875,-0.00750732421875,-0.7147216796875,-0.69256591796875,98.0,-123.0,3.0,126.0,143.0,961.0,3598,3733.750974767091,-203.11938969847216,
240,6.607663154602051,0.028915882110595703,34.58307085964941,36.321464091710965,101425.25,183.0,-18.0,945.0,14.875,-10.75,-59.25,6.875,19.1875,18.25,267.4375,7.0625,-8.5,-0.09619140625,-0.01055908203125,-0.7191162109375,-0.68817138671875,61.0,-163.0,-16.0,121.0,144.0,962.0,3702,3727.400779813673,-204.76837493328904,
241,6.640403985977173,0.03274083137512207,30.54290187511378,36.292972612649784,101425.25,99.0,7.0,829.0,14.875,-10.75,-59.25,5.3125,19.6875,21.875,266.5625,6.4375,-8.625,-0.0926513671875,-0.01605224609375,-0.72454833984375,-0.68280029296875,-10.0,-139.0,-133.0,110.0,146.0,963.0,3673,3716.5206238509386,-217.52269103553363,
242,6.668527126312256,0.028123140335083008,35.557906694812516,36.28987262346607,101425.25,58.0,16.0,811.0,14.875,-11.5625,-58.875,7.75,13.1875,17.5,265.6875,6.125,-8.8125,-0.091552734375,-0.0196533203125,-0.72967529296875,-0.6773681640625,-42.0,-128.0,-176.0,104.0,149.0,963.0,3706,3714.4164990807512,-203.25224915723686,
243,6.694051027297974,0.025523900985717773,39.178964083882114,36.300888506684416,101427.75,27.0,64.0,741.0,14.875,-11.5625,-58.875,11.625,4.5,12.375,265.4375,6.0625,-9.0,-0.09222412109375,-0.02154541015625,-0.731201171875,-0.675537109375,-75.0,-88.0,-221.0,103.0,153.0,963.0,3800,3731.533199264601,-115.86556606775004,
244,6.724942207336426,0.03089118003845215,32.37169958399901,36.282839685047946,101427.75,-27.0,53.0,763.0,15.25,-12.6875,-58.0,-0.125,2.875,11.625,264.5625,6.0,-9.0625,-0.09185791015625,-0.02288818359375,-0.736328125,-0.66998291015625,-140.0,-102.0,-175.0,103.0,154.0,962.0,3837,3752.6265594116812,-35.99621767113746,
245,6.750888347625732,0.02594614028930664,38.54137797952695,36.29152007619349,101427.75,-32.0,48.0,814.0,15.25,-12.6875,-58.0,-8.4375,5.75,13.0,264.4375,5.9375,-8.9375,-0.091064453125,-0.0225830078125,-0.73712158203125,-0.66925048828125,-134.0,-103.0,-148.0,101.0,152.0,963.0,3814,3764.9012475293453,14.911743528346037,
246,6.775978088378906,0.025089740753173828,39.856928369158254,36.30472188537631,101427.75,5.0,68.0,902.0,15.5625,-13.5,-57.25,-20.5,4.375,11.375,263.625,5.8125,-8.125,-0.08551025390625,-0.01873779296875,-0.7423095703125,-0.664306640625,-60.0,-77.0,-26.0,100.0,138.0,965.0,3856,3783.120998023476,86.03889821036273,
247,6.802931308746338,0.02695322036743164,37.10131800088456,36.307877999949675,101427.75,124.0,20.0,1079.0,16.0,-12.25,-58.1875,-36.125,7.75,7.0625,263.375,5.6875,-7.5,-0.0809326171875,-0.01531982421875,-0.7440185546875,-0.66302490234375,25.0,-106.0,112.0,98.0,127.0,967.0,3828,3792.096798418781,110.73641086719317,
248,6.831526279449463,0.028594970703125,34.97118463180363,36.302282953376235,101427.75,164.0,32.0,1179.0,16.0,-12.25,-58.1875,-37.375,9.0,2.9375,263.3125,5.5,-6.4375,-0.07330322265625,-0.00994873046875,-0.744873046875,-0.66314697265625,70.0,-77.0,210.0,94.0,109.0,969.0,3851,3803.877438735025,140.86106453849766,
249,6.8598010540008545,0.0282747745513916,35.36721391650435,36.29842877947244,101427.75,150.0,42.0,1124.0,17.5,-10.75,-58.5625,-14.6875,1.375,-2.875,263.3125,5.4375,-6.0625,-0.07080078125,-0.00787353515625,-0.744873046875,-0.66339111328125,57.0,-60.0,153.0,93.0,103.0,970.0,3879,3818.9019509880204,179.91247196893102,
250,6.88555908203125,0.025758028030395508,38.82284772809315,36.30787231967947,101427.75,65.0,108.0,869.0,17.5,-10.75,-58.5625,1.375,-2.375,-7.3125,263.625,5.5,-6.0625,-0.071044921875,-0.00726318359375,-0.74334716796875,-0.6650390625,-39.0,12.0,-127.0,94.0,103.0,970.0,3898,3834.7215607904163,223.3374550196646,
251,6.913963079452515,0.02840399742126465,35.206312166869516,36.30334688160868,101427.75,38.0,111.0,810.0,17.0625,-10.5,-58.5625,-4.625,-3.3125,-7.5625,263.5,5.5,-6.0,-0.07110595703125,-0.0067138671875,-0.7440185546875,-0.664306640625,-56.0,8.0,-159.0,94.0,102.0,970.0,3898,3847.3772486323332,245.55971920259634,
252,6.942422151565552,0.02845907211303711,35.13818005127088,36.2985705130554,101427.75,103.0,131.0,836.0,17.0625,-10.5,-58.5625,-10.5625,-6.5,-9.0625,263.75,5.625,-5.75,-0.0703125,-0.0042724609375,-0.74261474609375,-0.66595458984375,6.0,33.0,-134.0,96.0,98.0,970.0,3940,3865.9017989058666,286.09564557036015,
253,6.970948219299316,0.02852606773376465,35.05565538626125,36.29348433539652,101427.75,133.0,129.0,858.0,17.0625,-10.5,-57.0,-11.5625,-8.3125,-15.625,263.6875,5.75,-5.5625,-0.0701904296875,-0.00238037109375,-0.7427978515625,-0.66583251953125,40.0,3.0,-112.0,99.0,95.0,970.0,3954,3883.5214391246936,319.25288456743516,
254,7.002233028411865,0.03128480911254883,31.964395128717097,36.27414268696628,101427.75,98.0,97.0,901.0,16.75,-9.25,-57.375,-14.5625,-6.6875,-22.8125,264.375,6.0,-5.125,-0.06915283203125,0.0023193359375,-0.739013671875,-0.670166015625,-4.0,10.0,-69.0,103.0,87.0,971.0,3889,3884.6171512997553,290.8299738017933,
255,7.029551029205322,0.02731800079345703,36.60589980799441,36.27543195014366,101427.75,33.0,86.0,914.0,16.75,-9.25,-57.375,-15.9375,-3.875,-24.9375,264.875,6.0625,-4.875,-0.06719970703125,0.0054931640625,-0.73468017578125,-0.675048828125,-70.0,5.0,-46.0,104.0,81.0,971.0,3828,3873.2937210398045,220.2965410637569,
256,7.057837009429932,0.028285980224609375,35.35320296695887,36.27173589556687,101425.5,44.0,129.0,932.0,16.0,-9.0,-58.5625,-17.0625,-2.1875,-26.125,265.6875,6.0625,-4.3125,-0.0648193359375,0.00848388671875,-0.73162841796875,-0.6785888671875,-60.0,55.0,-35.0,104.0,76.0,972.0,4306,3959.834976831844,504.2179450605288,
257,7.083349943161011,0.0255129337310791,39.19580596024633,36.282267862275255,101425.5,79.0,142.0,980.0,16.0,-9.0,-58.5625,-17.8125,-4.0,-27.8125,266.1875,6.125,-4.0625,-0.063232421875,0.01080322265625,-0.7283935546875,-0.68212890625,-25.0,73.0,8.0,104.0,69.0,972.0,4788,4125.4679814654755,1103.0080615777165,
258,7.109310150146484,0.025960206985473633,38.520494099279055,36.29044092199072,101425.5,105.0,185.0,993.0,16.75,-7.0625,-57.375,-15.0625,-4.375,-29.8125,267.0,6.1875,-3.6875,-0.061279296875,0.01397705078125,-0.7236328125,-0.68731689453125,0.0,122.0,20.0,105.0,62.0,972.0,4770,4254.374385172381,1489.2610917550592,
259,7.138683080673218,0.0293729305267334,34.044951663568696,36.28120159882134,101425.5,130.0,180.0,1030.0,16.75,-7.0625,-57.375,-13.75,-6.25,-31.1875,267.625,6.25,-3.4375,-0.060546875,0.01611328125,-0.71990966796875,-0.69122314453125,23.0,121.0,57.0,107.0,59.0,972.0,,4254.374385172381,1489.2610917550592,
260,7.162373065948486,0.023689985275268555,42.211929994062174,36.30081784431166,101425.5,93.0,141.0,1079.0,16.75,-6.375,-59.5,-11.0625,-5.625,-32.6875,268.4375,6.375,-3.1875,-0.0596923828125,0.018798828125,-0.71490478515625,-0.6964111328125,-15.0,86.0,106.0,109.0,55.0,972.0,4240,4251.499508137906,1328.1995717674715,
261,7.186169147491455,0.02379608154296875,42.02372555306188,36.31976852244144,101425.5,61.0,130.0,1073.0,16.75,-6.375,-59.5,-7.5,-7.3125,-32.4375,269.125,6.5,-3.125,-0.05963134765625,0.02032470703125,-0.7109375,-0.70037841796875,-49.0,76.0,100.0,111.0,53.0,972.0,4268,4254.799606510325,1209.2478574207912,
262,7.213328123092651,0.02715897560119629,36.8202400077252,36.321652852756934,101425.5,14.0,114.0,1048.0,17.0625,-5.6875,-57.75,-1.5625,-10.0,-29.8125,269.75,6.6875,-3.125,-0.0609130859375,0.02191162109375,-0.7069091796875,-0.70428466796875,-100.0,60.0,75.0,114.0,53.0,972.0,4325,4268.839685208261,1140.0189784172449,
263,7.240396022796631,0.027067899703979492,36.944129797147916,36.32397995523113,101425.5,-4.0,104.0,1085.0,17.0625,-5.6875,-57.75,0.0625,-10.6875,-25.5,270.5625,6.9375,-3.1875,-0.062744140625,0.02349853515625,-0.70196533203125,-0.70904541015625,-123.0,49.0,113.0,119.0,54.0,971.0,4433,4301.671748166609,1147.3122801196566,
264,7.268739223480225,0.02834320068359375,35.281830417227454,36.31991627202696,101425.5,11.0,130.0,1116.0,16.375,-4.875,-58.1875,4.375,-10.875,-20.5625,270.9375,7.25,-3.375,-0.0655517578125,0.0242919921875,-0.69940185546875,-0.7113037109375,-112.0,71.0,145.0,123.0,58.0,971.0,4428,4326.937398533288,1121.7228912695023,
265,7.296370267868042,0.027631044387817383,36.19117634369634,36.31942873938489,101425.5,106.0,95.0,1212.0,14.875,-3.375,-57.0,1.1875,-7.0625,-18.125,271.3125,7.375,-3.5,-0.06683349609375,0.02484130859375,-0.697021484375,-0.7135009765625,-71.0,62.0,186.0,126.0,59.0,970.0,4423,4346.149918826631,1079.0829731368742,
266,7.324413299560547,0.028043031692504883,35.65948257539045,36.31690199895732,101425.5,137.0,42.0,1247.0,14.875,-3.375,-57.0,-8.5,0.3125,-16.625,271.8125,7.375,-3.375,-0.06634521484375,0.02581787109375,-0.69403076171875,-0.7164306640625,11.0,-15.0,276.0,126.0,58.0,970.0,4334,4343.719935061305,962.5094794493739,
267,7.349112033843994,0.024698734283447266,40.48790470490569,36.33091981322595,101425.5,148.0,-128.0,1349.0,15.5625,-5.1875,-57.375,-12.25,3.3125,-19.75,271.9375,7.25,-3.125,-0.06396484375,0.02679443359375,-0.6929931640625,-0.71759033203125,23.0,-182.0,378.0,124.0,53.0,971.0,4301,4335.175948049044,831.6657183091993,
268,7.377685070037842,0.028573036193847656,34.99803077333868,36.325757667320076,101425.5,-21.0,-164.0,1033.0,15.5625,-5.1875,-57.375,15.75,3.4375,-14.75,272.5,7.125,-3.3125,-0.06427001953125,0.02520751953125,-0.689697265625,-0.7208251953125,-144.0,-221.0,62.0,122.0,56.0,971.0,4367,4341.540758439235,770.774729468518,
269,7.402141332626343,0.024456262588500977,40.889322167737404,36.340835430192534,101425.5,-7.0,-84.0,791.0,15.25,-3.25,-57.75,33.75,0.5,-3.1875,272.5,7.125,-3.9375,-0.06787109375,0.0213623046875,-0.689697265625,-0.72064208984375,-129.0,-151.0,-179.0,122.0,67.0,970.0,4475,4368.232606751388,802.8384150104648,
270,7.429933071136475,0.027791738510131836,35.98191597965119,36.33949288841993,101426.75,100.0,136.0,432.0,15.25,-3.25,-57.75,37.3125,-9.3125,6.4375,272.3125,7.3125,-5.0,-0.0758056640625,0.01593017578125,-0.6904296875,-0.71923828125,-24.0,50.0,-535.0,125.0,85.0,968.0,4563,4407.18608540111,862.7166530983633,
271,7.458619117736816,0.028686046600341797,34.86015392543094,36.33380331160147,101426.75,196.0,123.0,580.0,15.5625,-5.5625,-57.75,-3.75,-2.5,-0.4375,271.8125,7.5,-5.375,-0.079345703125,0.0147705078125,-0.6934814453125,-0.7159423828125,68.0,32.0,-387.0,128.0,91.0,967.0,4638,4453.348868320889,937.3691596095009,
272,7.4846861362457275,0.026067018508911133,38.36265354467544,36.340869215984725,101426.75,153.0,-85.0,1020.0,15.5625,-5.5625,-57.75,-39.125,12.875,-2.75,271.9375,7.25,-4.4375,-0.0750732421875,0.01715087890625,-0.6932373046875,-0.716552734375,58.0,-75.0,-141.0,126.0,82.0,969.0,4681,4498.8790946567115,1018.2982735217328,
273,7.509965181350708,0.02527904510498047,39.558456256837815,36.35169982917277,101426.75,101.0,-155.0,1151.0,14.875,-6.1875,-58.1875,-36.0625,17.8125,0.625,271.6875,6.9375,-3.6875,-0.06549072265625,0.02081298828125,-0.694580078125,-0.71612548828125,-17.0,-218.0,180.0,118.0,63.0,971.0,4878,4574.703275725369,1216.417201171064,
274,7.537595272064209,0.027630090713500977,36.192425510617916,36.35111598728273,101426.75,91.0,-157.0,1186.0,14.875,-6.1875,-58.1875,-11.9375,4.3125,6.4375,271.625,6.625,-3.0625,-0.0595703125,0.02294921875,-0.69549560546875,-0.7156982421875,-22.0,-210.0,213.0,113.0,52.0,972.0,4484,4556.5626205802955,1029.1200500487691,
275,7.5666961669921875,0.029100894927978516,34.36320437824641,36.34347064173377,101426.75,108.0,28.0,815.0,15.5625,-4.0625,-57.75,14.6875,0.625,16.625,271.125,6.625,-3.25,-0.06097412109375,0.02142333984375,-0.6983642578125,-0.71282958984375,-5.0,-27.0,-156.0,113.0,55.0,972.0,4484,4542.050096464237,876.3383618194573,
276,7.592090129852295,0.025393962860107422,39.37943855037086,36.353625323118976,101426.75,122.0,81.0,743.0,15.5625,-4.0625,-57.75,10.0625,-0.9375,17.125,270.8125,6.625,-3.4375,-0.0623779296875,0.020263671875,-0.700439453125,-0.710693359375,8.0,21.0,-228.0,113.0,59.0,972.0,4587,4551.04007717139,824.106564920148,
277,7.620007276535034,0.027917146682739258,35.82027960680826,36.351671323594495,101426.75,116.0,103.0,739.0,16.375,-4.0625,-55.75,-3.125,4.0625,16.5,270.0,6.625,-3.4375,-0.062255859375,0.01983642578125,-0.7052001953125,-0.70599365234375,3.0,44.0,-232.0,113.0,58.0,972.0,4695,4579.832061737112,844.8296021860386,
278,7.644217014312744,0.02420973777770996,41.30569315462415,36.3673610363865,101426.75,132.0,48.0,921.0,16.375,-4.0625,-55.75,-11.875,6.8125,15.5625,269.75,6.5,-3.1875,-0.060302734375,0.0203857421875,-0.7071533203125,-0.7042236328125,19.0,14.0,-101.0,111.0,55.0,972.0,4695,4602.86564938969,855.4884723501867,
279,7.672392129898071,0.02817511558532715,35.492312248783584,36.36414761867842,101426.75,128.0,25.0,1025.0,14.875,-3.6875,-57.0,-15.8125,12.375,18.25,269.25,6.25,-2.6875,-0.05548095703125,0.0216064453125,-0.71026611328125,-0.701416015625,25.0,-22.0,38.0,107.0,46.0,973.0,4690,4620.292519511751,831.7916167042891,
280,7.700577020645142,0.028184890747070312,35.48000270690939,36.36091155887719,101426.75,125.0,23.0,1031.0,15.5625,-4.375,-55.75,-6.125,8.6875,21.5625,268.5,5.9375,-2.375,-0.05194091796875,0.0216064453125,-0.71514892578125,-0.69671630859375,22.0,-17.0,57.0,102.0,40.0,974.0,4480,4592.2340156094015,649.0608755931399,
281,7.729082107543945,0.02850508689880371,35.08145769034535,36.35619289459105,101426.75,101.0,26.0,973.0,15.5625,-4.375,-55.75,1.8125,5.8125,25.1875,267.75,5.8125,-2.25,-0.05047607421875,0.02099609375,-0.71942138671875,-0.69244384765625,1.0,-12.0,-1.0,99.0,38.0,974.0,4437,4561.187212487521,475.23807701975215,
282,7.757510185241699,0.028428077697753906,35.176490321714915,36.35186977085661,101426.75,121.0,65.0,906.0,16.375,-4.0625,-55.375,4.75,6.0625,30.625,266.75,5.6875,-2.3125,-0.050048828125,0.0194091796875,-0.7255859375,-0.68603515625,24.0,26.0,-68.0,97.0,39.0,975.0,5032,4655.349769990016,758.9450985832226,
283,7.785397052764893,0.02788686752319336,35.859172751055866,36.350104957009975,101426.75,160.0,95.0,912.0,16.375,-4.0625,-55.375,2.4375,7.625,32.75,266.125,5.5625,-2.3125,-0.04937744140625,0.01849365234375,-0.7293701171875,-0.68206787109375,65.0,55.0,-62.0,95.0,39.0,975.0,4957,4715.679815992013,899.3891428913738,
284,7.809433221817017,0.024036169052124023,41.60396766354213,36.36627549443619,101423.25,143.0,96.0,972.0,17.5,-4.375,-55.75,-1.25,10.625,33.1875,265.0625,5.3125,-2.1875,-0.04754638671875,0.01708984375,-0.73583984375,-0.67529296875,52.0,58.0,-3.0,91.0,38.0,975.0,4962,4764.943852793611,1014.4081680091605,
285,7.8380632400512695,0.02863001823425293,34.928374540942514,36.361023287448724,101423.25,118.0,87.0,1062.0,17.5,-4.375,-55.75,-0.0625,11.5,34.25,264.0625,5.0,-2.125,-0.045166015625,0.015625,-0.7418212890625,-0.6689453125,32.0,51.0,85.0,86.0,36.0,976.0,4962,4804.355082234889,1050.6243695126423,
286,7.862019062042236,0.023955821990966797,41.74350604112343,36.37742388349141,101423.25,112.0,54.0,1110.0,17.0625,-4.375,-56.1875,1.5625,10.3125,34.0625,263.375,4.8125,-2.125,-0.0440673828125,0.014404296875,-0.745849609375,-0.66448974609375,30.0,8.0,155.0,83.0,36.0,976.0,5028,4849.084065787912,1132.2763920772697,
287,7.891590118408203,0.029571056365966797,33.81685076191244,36.36782900451629,101423.25,115.0,13.0,1140.0,17.0625,-4.375,-56.1875,16.75,8.75,36.4375,262.3125,4.625,-2.375,-0.04412841796875,0.0111083984375,-0.75189208984375,-0.65771484375,61.0,-23.0,117.0,79.0,40.0,976.0,5051,4889.467252630329,1155.6119731435892,
288,7.919028043746948,0.027437925338745117,36.44590426040336,36.36809952042178,101423.25,183.0,24.0,1044.0,16.75,-5.5625,-55.375,28.9375,7.25,38.5625,261.0,4.4375,-3.0,-0.04693603515625,0.00518798828125,-0.75927734375,-0.6490478515625,121.0,-30.0,54.0,76.0,51.0,976.0,5346,4980.773802104263,1372.8257518767084,
289,7.944873094558716,0.025845050811767578,38.692127451523035,36.375659694039705,101423.25,158.0,98.0,958.0,16.75,-5.5625,-55.375,34.5625,7.5,39.625,260.25,4.375,-3.5625,-0.049560546875,0.00048828125,-0.76361083984375,-0.643798828125,83.0,37.0,-17.0,74.0,61.0,975.0,4690,4922.619041683411,1010.5300364773958,
290,7.973296165466309,0.028423070907592773,35.182686742440126,36.371407004300046,101423.25,152.0,224.0,865.0,17.5,-7.375,-54.1875,26.5625,-2.5,39.5,258.75,4.375,-4.5,-0.05474853515625,-0.00579833984375,-0.77178955078125,-0.63348388671875,77.0,145.0,-66.0,75.0,76.0,974.0,4910,4920.0952333467285,900.5975970189116,
291,8.001666069030762,0.028369903564453125,35.24862175608444,36.36742616969127,101423.25,230.0,154.0,1089.0,17.5,-7.375,-54.1875,-1.5,-5.5625,32.125,258.0625,4.5625,-4.5,-0.05609130859375,-0.005615234375,-0.77532958984375,-0.6290283203125,151.0,77.0,115.0,78.0,77.0,974.0,4967,4929.476186677382,843.6044048833907,
292,8.026630163192749,0.024964094161987305,40.05753197016436,36.37890298459339,101423.25,92.0,-332.0,1683.0,16.375,-8.875,-54.0625,-21.25,21.5,18.5625,257.0625,4.25,-3.4375,-0.04833984375,-0.00042724609375,-0.78118896484375,-0.62237548828125,-44.0,-436.0,706.0,73.0,59.0,976.0,5023,4948.180949341906,834.1706272379004,
293,8.056149005889893,0.029518842697143555,33.87666685512596,36.36973444579863,101423.25,-43.0,-243.0,1314.0,16.75,-9.5625,-54.0625,20.4375,18.8125,24.625,256.5,3.875,-3.625,-0.046630859375,-0.00384521484375,-0.7841796875,-0.61871337890625,-110.0,-306.0,338.0,67.0,62.0,976.0,5037,4965.944759473525,810.9314323047665,
294,8.084477186203003,0.02832818031311035,35.300537801829705,36.365987957977225,101423.25,9.0,-31.0,823.0,16.75,-9.5625,-54.0625,49.875,5.0625,25.8125,255.75,3.75,-4.875,-0.05224609375,-0.01361083984375,-0.78814697265625,-0.61309814453125,-51.0,-81.0,-247.0,64.0,83.0,974.0,5042,4981.15580757882,783.5341069389317,
295,8.113256931304932,0.02877974510192871,34.74665937652741,36.36024379577393,101423.25,81.0,25.0,678.0,16.75,-10.375,-53.0,38.9375,0.125,22.6875,254.9375,3.75,-5.6875,-0.05645751953125,-0.019287109375,-0.792236328125,-0.6072998046875,-6.0,-72.0,-295.0,64.0,97.0,973.0,5055,4995.924646063057,756.497476264911,
296,8.138199090957642,0.02494215965270996,40.09275916455575,36.37168330385107,101423.25,95.0,108.0,566.0,16.75,-10.375,-53.0,29.9375,-14.5625,14.3125,254.1875,4.1875,-7.0625,-0.06658935546875,-0.02685546875,-0.79547119140625,-0.60174560546875,32.0,-6.0,-401.0,72.0,120.0,970.0,5093,5015.339716850445,758.6881043625776,
297,8.162477016448975,0.024277925491333008,41.18968073927859,36.386013633053714,101423.25,59.0,84.0,597.0,17.0625,-12.6875,-53.375,24.3125,-12.75,13.0625,253.75,4.3125,-7.25,-0.06866455078125,-0.0279541015625,-0.7974853515625,-0.59881591796875,-14.0,-39.0,-372.0,74.0,124.0,969.0,5130,5038.271773480356,777.2757030544295,
298,8.191270112991333,0.0287930965423584,34.73054725214669,36.38019451066237,101418.0,-66.0,29.0,754.0,17.0625,-12.6875,-53.375,-4.3125,-1.125,14.5,253.25,4.5,-7.4375,-0.070556640625,-0.02850341796875,-0.800048828125,-0.5950927734375,-143.0,-97.0,-215.0,77.0,127.0,969.0,5135,5057.617418784285,766.7366175841239,
299,8.216001987457275,0.024731874465942383,40.433651779086695,36.39239625994003,101418.0,-31.0,37.0,826.0,16.5,-14.1875,-53.75,-21.8125,-2.75,14.9375,252.9375,4.5625,-7.3125,-0.07025146484375,-0.0277099609375,-0.8017578125,-0.59283447265625,-130.0,-95.0,-177.0,78.0,125.0,969.0,5172,5080.493935027429,782.5610649951008,
300,8.243245124816895,0.02724313735961914,36.70649186984755,36.393434315913765,101418.0,58.0,-27.0,1076.0,16.5,-14.1875,-53.75,-36.5625,4.0625,10.125,252.4375,4.625,-6.3125,-0.06512451171875,-0.02044677734375,-0.80462646484375,-0.58984375,-20.0,-134.0,104.0,79.0,107.0,971.0,5140,5092.395148021944,747.9901362980393,
301,8.2715482711792,0.028303146362304688,35.33176090033021,36.389801537976055,101418.0,40.0,-99.0,1259.0,15.6875,-14.875,-52.5625,-35.625,17.5,6.0,252.0,4.1875,-5.125,-0.05609130859375,-0.01458740234375,-0.8076171875,-0.58685302734375,-39.0,-177.0,280.0,72.0,87.0,974.0,5201,5114.116118417555,749.9351359223247,
302,8.299959182739258,0.028410911560058594,35.1977442851868,36.38572110427297,101418.0,78.0,-4.0,1142.0,15.6875,-14.875,-52.5625,-9.0,1.9375,2.6875,251.9375,4.0625,-4.8125,-0.053466796875,-0.01300048828125,-0.80810546875,-0.58648681640625,8.0,-86.0,167.0,69.0,82.0,974.0,5187,5128.692894734044,726.2485868591054,
303,8.32559323310852,0.025634050369262695,39.010612275268095,36.39380300193565,101418.0,100.0,156.0,806.0,16.0625,-12.25,-53.75,5.9375,-5.0625,-0.3125,251.875,4.25,-4.9375,-0.05584716796875,-0.01324462890625,-0.80804443359375,-0.5863037109375,1.0,76.0,-206.0,73.0,85.0,974.0,5196,5142.154315787235,706.1375559112108,
304,8.356049299240112,0.030456066131591797,32.83418139687808,36.38082891967205,101418.0,56.0,141.0,772.0,16.875,-13.0625,-52.1875,-5.3125,-5.125,-2.875,251.6875,4.375,-4.875,-0.05621337890625,-0.01239013671875,-0.8092041015625,-0.58465576171875,-18.0,57.0,-201.0,75.0,84.0,974.0,5262,5166.1234526297885,714.2244990215902,
305,8.382940292358398,0.026890993118286133,37.187172507957335,36.3834155276076,101418.0,82.0,96.0,790.0,16.875,-13.0625,-52.1875,-9.3125,-6.75,-4.0625,251.8125,4.5625,-4.625,-0.05621337890625,-0.009521484375,-0.80859375,-0.5855712890625,4.0,17.0,-165.0,78.0,79.0,974.0,5257,5184.298762103832,710.3908859991075,
306,8.409562110900879,0.02662181854248047,37.5631739208311,36.38715024214496,101418.0,160.0,104.0,882.0,16.0625,-12.25,-53.75,-14.875,-8.75,-2.5,251.75,4.6875,-4.375,-0.05596923828125,-0.0068359375,-0.808837890625,-0.5853271484375,79.0,29.0,-91.0,80.0,75.0,974.0,5365,5220.439009683066,775.1060379352621,
307,8.436836242675781,0.027274131774902344,36.66477848875835,36.3880477431945,101418.0,194.0,157.0,908.0,16.0625,-12.25,-53.75,-13.4375,-9.9375,-10.625,252.0625,5.0,-3.8125,-0.0555419921875,-0.001220703125,-0.80731201171875,-0.5875244140625,107.0,91.0,-65.0,86.0,65.0,974.0,5323,5240.951207746453,772.8029539729002,
308,8.467169046401978,0.03033280372619629,32.96760856749852,36.37579435488901,101418.0,162.0,153.0,929.0,15.375,-12.6875,-54.0625,-15.0625,-11.3125,-19.0,252.3125,5.3125,-3.4375,-0.05548095703125,0.00311279296875,-0.805908203125,-0.58941650390625,47.0,88.0,-38.0,91.0,59.0,974.0,5351,5262.960966197163,768.083568702428,
309,8.491912126541138,0.024743080139160156,40.41534014260937,36.38756447258005,101418.0,105.0,112.0,1029.0,15.375,-12.6875,-54.0625,-20.25,-8.125,-28.0625,252.875,5.4375,-3.125,-0.0546875,0.00628662109375,-0.80316162109375,-0.59320068359375,12.0,59.0,54.0,93.0,53.0,974.0,5421,5294.56877295773,819.0192379712063,
310,8.517852306365967,0.0259401798248291,38.55023391329124,36.394150643856086,101418.0,98.0,101.0,1061.0,15.375,-11.1875,-54.0625,-17.3125,-8.625,-32.4375,253.375,5.5625,-2.8125,-0.0540771484375,0.00933837890625,-0.80047607421875,-0.59686279296875,2.0,52.0,86.0,95.0,48.0,974.0,5440,5323.655018366185,849.2454705896171,
311,8.544871091842651,0.02701878547668457,37.0112861239797,36.3961020192447,101418.0,154.0,120.0,1065.0,15.375,-11.1875,-54.0625,-11.625,-7.0,-36.9375,254.4375,5.75,-2.5625,-0.05377197265625,0.01263427734375,-0.7950439453125,-0.60406494140625,55.0,76.0,90.0,98.0,44.0,974.0,5445,5347.924014692948,854.1436002298193,
312,8.572110176086426,0.027239084243774414,36.71195371513099,36.39710568237736,101415.5,143.0,86.0,1067.0,15.0,-10.0625,-53.0,-9.5625,-7.0,-42.8125,255.5,5.875,-2.375,-0.05389404296875,0.0150146484375,-0.7891845703125,-0.61163330078125,42.0,45.0,92.0,101.0,41.0,974.0,5880,5454.339211754358,1159.400219117341,
313,8.599485158920288,0.027374982833862305,36.52970327210653,36.397527784012,101415.5,110.0,42.0,1100.0,15.0,-10.0625,-53.0,-6.5,-8.9375,-47.0,256.4375,6.0625,-2.375,-0.054443359375,0.0164794921875,-0.78424072265625,-0.6177978515625,6.0,1.0,126.0,103.0,40.0,974.0,5782,5519.871369403487,1282.8472245759651,
314,8.625996112823486,0.026510953903198242,37.72025720580962,36.40159303262433,101415.5,29.0,4.0,1116.0,15.0,-10.0625,-53.75,0.125,-8.3125,-46.0,257.5,6.25,-2.4375,-0.056884765625,0.01751708984375,-0.776123046875,-0.62774658203125,-118.0,-28.0,145.0,108.0,43.0,973.0,5664,5548.69709552279,1263.293882454802,
315,8.653639316558838,0.027643203735351562,36.175257020630646,36.400870024388915,101415.5,-31.0,77.0,1057.0,15.6875,-9.0,-53.75,21.875,-18.3125,-38.1875,258.4375,6.5625,-2.9375,-0.0606689453125,0.0164794921875,-0.773193359375,-0.631103515625,-144.0,27.0,84.0,112.0,50.0,972.0,5641,5567.157676418232,1203.746120073598,
316,8.681663990020752,0.028024673461914062,35.682842169740695,36.39855220879663,101415.5,97.0,186.0,953.0,15.6875,-9.0,-53.75,22.1875,-21.9375,-37.1875,259.125,6.875,-3.4375,-0.0679931640625,0.0155029296875,-0.76678466796875,-0.6380615234375,-24.0,125.0,-17.0,121.0,61.0,971.0,5636,5580.926141134585,1132.501303405566,
317,8.708765268325806,0.02710127830505371,36.8986284980338,36.400108423285225,101415.5,244.0,53.0,1118.0,15.6875,-8.1875,-53.25,-23.125,-14.25,-43.1875,260.25,7.375,-3.5,-0.06927490234375,0.01824951171875,-0.76263427734375,-0.642822265625,100.0,66.0,147.0,126.0,60.0,970.0,5674,5599.540912907669,1087.9371278880797,
318,8.73352313041687,0.024757862091064453,40.391209722462975,36.411422429566656,101415.5,156.0,-160.0,1479.0,15.6875,-8.1875,-53.25,-51.375,11.0,-48.875,261.625,7.4375,-2.625,-0.0640869140625,0.0252685546875,-0.7547607421875,-0.65240478515625,29.0,-205.0,508.0,127.0,44.0,971.0,5711,5621.832730326135,1069.1827623436832,
319,8.760769128799438,0.02724599838256836,36.70263742802639,36.41232810842434,101415.5,-58.0,-328.0,1473.0,14.5625,-7.75,-55.0,-20.5625,32.0,-32.875,262.6875,6.5,-1.9375,-0.05401611328125,0.02490234375,-0.7493896484375,-0.659423828125,-169.0,-361.0,499.0,111.0,33.0,973.0,5810,5659.466184260908,1100.3891876025477,
320,8.789600133895874,0.028831005096435547,34.6848816631659,36.40666186462389,101415.5,38.0,-19.0,726.0,14.5625,-7.75,-55.0,49.875,-10.6875,-18.375,263.25,6.4375,-3.0,-0.05975341796875,0.0179443359375,-0.74578857421875,-0.66326904296875,-72.0,-71.0,-246.0,110.0,51.0,973.0,5810,5689.572947408727,1094.7752205465965,
321,8.81829309463501,0.028692960739135742,34.85175367894505,36.401602504604234,101415.5,99.0,145.0,429.0,15.375,-5.25,-54.5625,35.3125,-18.625,-16.8125,263.5,6.75,-3.8125,-0.0665283203125,0.014404296875,-0.7440185546875,-0.6646728515625,-34.0,81.0,-541.0,115.0,65.0,971.0,5838,5719.258357926982,1088.7565600159978,
322,8.844418048858643,0.026124954223632812,38.2775790319048,36.40714383028893,101415.5,176.0,82.0,499.0,15.375,-5.25,-54.5625,-16.0625,-8.0,-22.6875,264.1875,7.1875,-4.0,-0.07037353515625,0.0162353515625,-0.73992919921875,-0.6688232421875,52.0,13.0,-470.0,123.0,68.0,970.0,5969,5769.206686341586,1171.0710128545504,
323,8.875527143478394,0.031109094619750977,32.144940642698934,36.3922046294834,101415.5,224.0,-153.0,977.0,15.0,-6.375,-53.375,-43.0,2.9375,-29.375,264.9375,7.0625,-2.9375,-0.0633544921875,0.0228271484375,-0.73565673828125,-0.67401123046875,102.0,-204.0,6.0,121.0,50.0,971.0,5969,5809.165349073269,1182.4107957362532,
324,8.901127099990845,0.025599956512451172,39.06256635684616,36.399884684304,101415.5,139.0,-205.0,1158.0,15.375,-6.6875,-54.5625,-17.6875,8.5625,-22.3125,265.625,6.8125,-2.25,-0.057373046875,0.02581787109375,-0.73187255859375,-0.67852783203125,23.0,-244.0,185.0,116.0,39.0,972.0,5833,5813.932279258615,1082.7905688309834,
325,8.927582025527954,0.026454925537109375,37.80014419610671,36.40403404535287,101415.5,111.0,-97.0,950.0,15.375,-6.6875,-54.5625,3.8125,1.25,-14.375,265.9375,6.75,-2.3125,-0.05694580078125,0.02557373046875,-0.72998046875,-0.68060302734375,-4.0,-136.0,-22.0,115.0,39.0,973.0,5814,5813.9458234068925,974.5627090236738,
326,8.955254077911377,0.02767205238342285,36.13754361780037,36.40321058049004,101415.75,51.0,12.0,750.0,15.0,-5.25,-54.5625,2.25,3.0,-4.5625,265.9375,6.6875,-2.5,-0.05755615234375,0.02386474609375,-0.7301025390625,-0.68048095703125,-62.0,-30.0,-222.0,114.0,42.0,973.0,5847,5820.556658725514,900.9963730889858,
327,8.979411125183105,0.024157047271728516,41.39578768678076,36.416641964740414,101415.75,18.0,58.0,705.0,15.0,-5.25,-54.5625,-7.6875,2.3125,2.75,265.9375,6.5625,-2.3125,-0.055908203125,0.0242919921875,-0.73028564453125,-0.68035888671875,-94.0,18.0,-267.0,112.0,41.0,973.0,5927,5841.845326980412,899.0228549014934,
328,9.006922006607056,0.027510881423950195,36.34925339503766,36.41643613205428,101415.75,46.0,53.0,777.0,15.0,-4.875,-53.75,-12.375,1.75,5.0,265.6875,6.5625,-2.0625,-0.054443359375,0.02557373046875,-0.7315673828125,-0.6790771484375,-65.0,18.0,-196.0,112.0,35.0,973.0,5922,5857.87626158433,867.3918198190518,
329,9.034003257751465,0.02708125114440918,36.92591581783127,36.41796340041248,101415.75,73.0,58.0,854.0,15.0,-4.875,-53.75,-15.4375,4.3125,11.1875,265.4375,6.4375,-1.625,-0.05126953125,0.02764892578125,-0.733154296875,-0.67755126953125,-37.0,29.0,-119.0,110.0,28.0,974.0,5950,5876.301009267464,848.6877060283662,
330,9.061517000198364,0.027513742446899414,36.34547360941413,36.41774329759311,101415.75,87.0,35.0,932.0,15.375,-4.5,-54.0625,-18.125,6.875,15.625,265.125,6.3125,-1.25,-0.0484619140625,0.02923583984375,-0.7353515625,-0.67529296875,-20.0,13.0,-41.0,108.0,22.0,974.0,,5876.301009267464,848.6877060283662,
331,9.083946943283081,0.022429943084716797,44.58326069856927,36.437905468475954,101415.75,139.0,13.0,1065.0,15.375,-4.5,-54.0625,-13.8125,3.625,21.8125,264.5,6.1875,-0.75,-0.0445556640625,0.031494140625,-0.73876953125,-0.6717529296875,33.0,0.0,90.0,106.0,13.0,974.0,6072,5915.440807413972,938.3169178710438,
332,9.11237907409668,0.028432130813598633,35.17147577000159,36.43395399822209,101415.75,145.0,16.0,1122.0,15.375,-6.0,-53.0,-3.9375,2.0,26.75,263.3125,6.125,-0.4375,-0.042724609375,0.03253173828125,-0.7457275390625,-0.6640625,40.0,8.0,147.0,104.0,8.0,975.0,6115,5955.352645931178,984.8610522183521,
333,9.139525175094604,0.027146100997924805,36.837702772727674,36.43515320767778,101415.75,162.0,74.0,1090.0,15.375,-6.0,-53.0,4.5625,3.375,32.6875,262.4375,6.0625,-0.4375,-0.04241943359375,0.031982421875,-0.7509765625,-0.658203125,59.0,66.0,115.0,103.0,7.0,975.0,6063,5976.882116744943,965.6845716656773,
334,9.167973041534424,0.028447866439819336,35.15202105280802,36.43117169813352,101415.75,154.0,108.0,1063.0,16.375,-3.25,-53.75,8.4375,8.3125,34.4375,261.4375,5.875,-0.5625,-0.042236328125,0.02978515625,-0.75677490234375,-0.651611328125,53.0,99.0,88.0,100.0,9.0,975.0,6054,5992.305693395955,923.3331036137064,
335,9.193448305130005,0.025475263595581055,39.25376458807124,36.438993170067405,101415.75,100.0,91.0,1084.0,16.375,-3.25,-53.75,12.625,10.1875,35.4375,260.75,5.6875,-0.6875,-0.04205322265625,0.02752685546875,-0.7607421875,-0.6470947265625,2.0,78.0,108.0,97.0,12.0,975.0,6101,6014.044554716764,916.3330077223106,
336,9.220883131027222,0.027434825897216797,36.45002172590597,36.43902598324864,101415.75,77.0,57.0,1058.0,15.5625,-4.375,-53.75,22.5,10.6875,38.625,259.5,5.375,-1.125,-0.04296875,0.0223388671875,-0.7677001953125,-0.63897705078125,-15.0,37.0,82.0,92.0,20.0,976.0,6133,6037.835643773412,911.4182782498585,
337,9.246530055999756,0.02564692497253418,38.991029180727146,36.446104426095744,101415.75,101.0,-14.0,1063.0,15.5625,-5.875,-54.0625,26.75,13.4375,41.5,258.6875,5.1875,-1.5625,-0.0439453125,0.0179443359375,-0.77227783203125,-0.63348388671875,-1.0,5.0,76.0,88.0,27.0,976.0,6143,6058.86851501873,902.2857800729412,
338,9.272858142852783,0.026328086853027344,37.98225087840041,36.4504659505138,101415.75,83.0,-53.0,1065.0,15.5625,-5.875,-54.0625,36.3125,14.125,46.6875,257.125,4.8125,-2.375,-0.04608154296875,0.009765625,-0.781005859375,-0.62274169921875,1.0,-95.0,89.0,82.0,41.0,976.0,6162,6079.494812014984,890.4005207860571,
339,9.299982070922852,0.02712392807006836,36.86781639505652,36.45168317688601,101415.75,82.0,183.0,815.0,16.5,-7.6875,-53.375,45.1875,7.5,62.625,255.1875,4.5625,-3.5625,-0.051025390625,-0.0003662109375,-0.791259765625,-0.609375,4.0,121.0,-160.0,78.0,61.0,975.0,6653,6194.195849611988,1224.2381481523332,
340,9.325386047363281,0.025403976440429688,39.36391620992567,36.45961660709304,101422.0,203.0,208.0,822.0,16.5,-7.6875,-53.375,13.3125,1.125,56.75,254.0,4.625,-3.9375,-0.05316162109375,-0.003173828125,-0.7972412109375,-0.601318359375,124.0,140.0,-152.0,79.0,67.0,975.0,6569,6269.15667968959,1396.8895167572225,
341,9.352966070175171,0.02758002281188965,36.258128095851454,36.45902245784726,101422.0,205.0,-168.0,1424.0,18.0,-10.6875,-53.0,-50.0625,12.75,31.9375,252.6875,4.5,-2.9375,-0.0472412109375,0.0028076171875,-0.80450439453125,-0.592041015625,127.0,-219.0,447.0,77.0,50.0,976.0,6503,6315.925343751673,1426.7749863249828,
342,9.380465269088745,0.02749919891357422,36.3646956823305,36.458745935234745,101422.0,-104.0,-511.0,1667.0,18.0,-10.6875,-53.0,4.5,31.1875,43.125,251.6875,3.75,-2.1875,-0.0379638671875,0.00335693359375,-0.80999755859375,-0.585205078125,-168.0,-549.0,690.0,64.0,38.0,977.0,6414,6335.540275001339,1355.4265882648797,
343,9.40571904182434,0.025253772735595703,39.598043843583014,36.46717475556993,101422.0,-23.0,-143.0,966.0,17.5625,-9.5625,-52.5625,56.5,6.4375,53.5,250.625,3.5625,-3.0625,-0.041015625,-0.00390625,-0.815185546875,-0.57769775390625,-84.0,-196.0,-10.0,61.0,52.0,977.0,6400,6348.432220001072,1270.9335097712403,
344,9.433803081512451,0.02808403968811035,35.60741300416833,36.46461528056923,101422.0,59.0,131.0,489.0,17.5625,-9.5625,-52.5625,48.5625,-4.875,52.625,249.0,3.75,-4.625,-0.05010986328125,-0.0146484375,-0.82281494140625,-0.56591796875,-5.0,52.0,-485.0,64.0,79.0,975.0,6391,6356.945776000858,1174.1547292559665,
345,9.460983991622925,0.027180910110473633,36.79052673128371,36.46555160705004,101422.0,67.0,170.0,448.0,17.5625,-11.0625,-53.0,16.9375,-11.25,38.375,247.6875,4.125,-5.3125,-0.05615234375,-0.0185546875,-0.82904052734375,-0.5560302734375,-10.0,74.0,-516.0,71.0,91.0,973.0,6381,6361.7566208006865,1074.4386077511842,
346,9.489745140075684,0.02876114845275879,34.76912619266702,36.46041014724665,101422.0,0.0,18.0,758.0,17.5625,-11.0625,-53.0,-17.3125,2.875,33.4375,246.6875,4.25,-5.0,-0.0552978515625,-0.01611328125,-0.833984375,-0.548828125,-72.0,-67.0,-216.0,73.0,85.0,974.0,6527,6394.80529664055,1081.9021050537428,
347,9.520918130874634,0.031172990798950195,32.07905222984497,36.44606488892506,101422.0,2.0,-88.0,1012.0,17.5,-13.375,-52.0625,-19.25,0.25,27.1875,245.875,4.3125,-4.375,-0.05242919921875,-0.011474609375,-0.8380126953125,-0.54296875,-71.0,-163.0,37.0,73.0,74.0,975.0,6569,6429.644237312441,1085.4719142929737,
348,9.55437421798706,0.03345608711242676,29.88992695528238,36.42310757986173,101422.0,56.0,-112.0,1138.0,16.75,-13.375,-52.5625,-18.25,2.6875,25.4375,245.375,4.3125,-3.9375,-0.0506591796875,-0.00885009765625,-0.8404541015625,-0.5394287109375,-26.0,-174.0,130.0,73.0,64.0,975.0,6719,6487.515389849953,1149.9011750801,
349,9.580417156219482,0.026042938232421875,38.398125091548266,36.428476371035025,101422.0,98.0,-92.0,1120.0,16.75,-13.375,-52.5625,1.1875,5.3125,20.625,244.5,4.125,-3.5625,-0.04718017578125,-0.0069580078125,-0.8447265625,-0.5330810546875,54.0,-77.0,5.0,70.0,60.0,976.0,6798,6549.612311879963,1273.3515955629357,
350,9.608695030212402,0.028277873992919922,35.363337436554644,36.42534172429273,101422.0,167.0,54.0,845.0,15.25,-11.75,-53.0,7.375,2.0,16.75,244.1875,4.0625,-3.625,-0.0474853515625,-0.00799560546875,-0.84619140625,-0.53076171875,96.0,-7.0,-130.0,70.0,62.0,976.0,6803,6600.289849503972,1325.2291223517925,
351,9.635935068130493,0.02724003791809082,36.71066842883776,36.426148320663074,101422.0,184.0,121.0,731.0,15.25,-11.75,-53.0,1.25,1.25,10.125,243.8125,4.0625,-3.75,-0.04766845703125,-0.00885009765625,-0.84783935546875,-0.52801513671875,114.0,57.0,-256.0,70.0,64.0,976.0,6873,6654.831879603178,1392.9336483573786,
352,9.663306951522827,0.027371883392333984,36.53383969478947,36.42645336279303,101422.0,160.0,115.0,723.0,15.5625,-11.875,-53.25,-2.3125,-1.125,5.0,243.75,4.0625,-3.6875,-0.047607421875,-0.00848388671875,-0.84808349609375,-0.52764892578125,89.0,52.0,-252.0,70.0,63.0,976.0,6869,6697.665503682543,1410.1279590878808,
353,9.69232726097107,0.029020309448242188,34.45862635557016,36.42056138791924,101422.0,95.0,97.0,778.0,15.5625,-11.875,-53.25,-11.0,-1.0625,3.875,243.625,4.125,-3.375,-0.0465087890625,-0.0059814453125,-0.84869384765625,-0.52679443359375,37.0,33.0,-133.0,71.0,57.0,976.0,6906,6739.332402946035,1412.6935744906757,
354,9.717101097106934,0.024773836135864258,40.365165673810736,36.430618191818155,101422.5,138.0,97.0,895.0,15.5625,-11.875,-53.0,-11.6875,-2.125,3.5,243.6875,4.1875,-3.25,-0.046142578125,-0.00494384765625,-0.848388671875,-0.52734375,52.0,40.0,-105.0,71.0,56.0,976.0,6948,6781.065922356828,1439.8822595583963,
355,9.743093013763428,0.02599191665649414,38.47349978902567,36.436068043127044,101422.5,182.0,107.0,936.0,15.5625,-11.875,-53.0,-9.625,-5.25,-7.375,243.8125,4.375,-2.875,-0.0460205078125,-0.00103759765625,-0.8477783203125,-0.52838134765625,99.0,61.0,-27.0,75.0,49.0,976.0,,6781.065922356828,1439.8822595583963,
356,9.76755404472351,0.024461030960083008,40.88135130656842,36.44720043216073,101422.5,146.0,129.0,955.0,16.25,-10.6875,-53.25,-5.9375,-5.0,-15.9375,244.5625,4.5,-2.6875,-0.04608154296875,0.00115966796875,-0.84442138671875,-0.53369140625,58.0,94.0,-32.0,77.0,46.0,976.0,6911,6807.052737885463,1402.1316470990678,
357,9.793673038482666,0.026118993759155273,38.286314136794736,36.452105210907675,101422.5,117.0,149.0,963.0,16.25,-10.6875,-53.25,-7.6875,-6.0,-22.3125,244.9375,4.5625,-2.5625,-0.04620361328125,0.0025634765625,-0.842529296875,-0.53668212890625,38.0,104.0,-13.0,79.0,44.0,976.0,6775,6800.642190308371,1237.3748585566195,
358,9.821838140487671,0.028165102005004883,35.50493088298782,36.449389093905864,101422.5,121.0,161.0,997.0,15.875,-10.6875,-54.0625,-11.875,-5.5625,-31.0625,246.0,4.75,-2.3125,-0.04608154296875,0.00531005859375,-0.8375244140625,-0.54443359375,42.0,120.0,30.0,81.0,40.0,976.0,6826,6805.713752246697,1131.6439183098646,
359,9.849750995635986,0.02791285514831543,35.82578688874653,36.447621890041475,101422.5,171.0,177.0,1054.0,15.875,-10.6875,-54.0625,-14.75,-4.6875,-34.75,246.6875,4.8125,-2.125,-0.0455322265625,0.007568359375,-0.8343505859375,-0.54931640625,88.0,141.0,78.0,82.0,36.0,976.0,6883,6821.171001797358,1073.8563393076931,
360,9.875351190567017,0.025600194931030273,39.06220256111758,36.45439975277778,101422.5,221.0,95.0,1192.0,14.0,-9.1875,-54.0625,-22.9375,-2.0,-42.8125,248.0625,4.8125,-1.625,-0.04327392578125,0.0118408203125,-0.82763671875,-0.55950927734375,138.0,67.0,216.0,83.0,28.0,976.0,6850,6826.936801437887,988.993188725439,
361,9.900479078292847,0.025127887725830078,39.796421048636546,36.4628819620967,101422.5,176.0,17.0,1258.0,14.0,-9.1875,-54.0625,-16.6875,1.625,-49.625,249.0625,4.8125,-1.3125,-0.0416259765625,0.01422119140625,-0.82293701171875,-0.56640625,93.0,-5.0,282.0,82.0,23.0,976.0,6883,6838.14944115031,934.71616295912,
362,9.925793170928955,0.0253140926361084,39.503687308688484,36.47063703284081,101422.5,50.0,-28.0,1162.0,15.5,-8.875,-54.0625,2.0,-4.3125,-51.75,251.1875,4.875,-1.3125,-0.04119873046875,0.01458740234375,-0.81475830078125,-0.578125,-32.0,-52.0,185.0,82.0,23.0,976.0,7094,6889.3195529202485,1043.3853561542373,
363,9.959439039230347,0.0336458683013916,29.721331339772252,36.44783592430645,101422.5,-10.0,42.0,989.0,15.875,-7.0,-54.0625,19.25,-15.125,-47.0,252.375,5.0625,-1.875,-0.04559326171875,0.01312255859375,-0.80615234375,-0.58978271484375,-98.0,10.0,13.0,87.0,32.0,976.0,7862,7083.855642336199,1517.233977646316,
364,9.986886262893677,0.027447223663330078,36.433557443407864,36.447796682379746,101422.5,184.0,166.0,882.0,15.875,-7.0,-54.0625,10.875,-31.0625,-46.375,254.1875,6.0625,-2.5625,-0.05596923828125,0.01434326171875,-0.7962646484375,-0.60223388671875,120.0,90.0,-42.0,104.0,43.0,974.0,6986,7064.284513868959,1294.2059965573349,
365,10.011636018753052,0.024749755859375,40.40443896424168,36.45757789399347,101422.5,249.0,73.0,998.0,15.1875,-6.1875,-55.25,-15.75,-28.8125,-58.3125,255.0625,6.3125,-2.4375,-0.05712890625,0.0167236328125,-0.79156494140625,-0.60821533203125,140.0,30.0,24.0,108.0,42.0,973.0,7122,7075.827611095168,1211.4246336350695,
366,10.040235996246338,0.028599977493286133,34.96506248072226,36.453326409541916,101422.5,125.0,-271.0,1406.0,15.1875,-6.1875,-55.25,-49.625,-1.25,-71.0,257.75,6.4375,-1.0625,-0.0498046875,0.0279541015625,-0.77703857421875,-0.6268310546875,-12.0,-394.0,524.0,110.0,18.0,974.0,7183,7097.262088876136,1165.2279557568804,
367,10.066871166229248,0.026635169982910156,37.544344588062586,36.45621305169313,101422.5,8.0,-383.0,1347.0,14.75,-6.5625,-56.5625,-15.0625,20.125,-51.625,259.4375,5.9375,-0.875,-0.04486083984375,0.02740478515625,-0.76776123046875,-0.6385498046875,-71.0,-270.0,154.0,101.0,13.0,974.0,7150,7107.809671100909,1088.3053663429748,
368,10.094051122665405,0.027179956436157227,36.79181761563495,36.45711672429365,101421.0,93.0,-6.0,651.0,14.75,-6.5625,-56.5625,30.625,-16.3125,-40.625,260.25,6.125,-1.5,-0.0498046875,0.0245361328125,-0.7633056640625,-0.64361572265625,-12.0,-33.0,-323.0,105.0,26.0,974.0,7197,7125.647736880728,1045.1043159873568,
369,10.121880054473877,0.02782893180847168,35.93382623818785,36.4556779979725,101421.0,82.0,28.0,572.0,14.75,-2.875,-56.0625,12.9375,-27.4375,-39.3125,261.3125,6.625,-1.9375,-0.05523681640625,0.02484130859375,-0.75701904296875,-0.65057373046875,-30.0,-4.0,-401.0,117.0,34.0,972.0,7244,7149.318189504583,1025.650877545106,
370,10.147175312042236,0.025295257568359375,39.53310209621475,36.463349515692286,101421.0,89.0,-40.0,748.0,14.75,-2.875,-56.0625,-24.625,-8.8125,-37.0625,262.4375,7.0625,-1.75,-0.05670166015625,0.02947998046875,-0.75048828125,-0.65777587890625,-32.0,-70.0,-223.0,121.0,29.0,972.0,7365,7192.454551603667,1093.6172104828336,
371,10.175050973892212,0.027875661849975586,35.873587697465766,36.46173379887091,101421.0,32.0,-136.0,1065.0,13.0,-4.0625,-58.0625,-31.5625,2.625,-36.5,263.25,7.0625,-1.125,-0.05291748046875,0.0335693359375,-0.74591064453125,-0.6630859375,-87.0,-151.0,92.0,120.0,15.0,973.0,7853,7324.563641282934,1458.1781908587077,
372,10.209843158721924,0.034792184829711914,28.742086905275855,36.43542748080444,101421.0,27.0,0.0,918.0,12.6875,-2.5625,-57.75,1.75,-2.4375,-25.75,264.6875,7.0,-0.75,-0.0498046875,0.03656005859375,-0.73760986328125,-0.67242431640625,-92.0,-12.0,-54.0,120.0,12.0,973.0,7267,7313.050913026347,1279.2703881660714,
373,10.238182067871094,0.028338909149169922,35.28717336070401,36.43224915588563,101421.0,43.0,87.0,741.0,12.6875,-2.5625,-57.75,8.0,5.0,-13.8125,265.1875,6.9375,-1.0,-0.05084228515625,0.0338134765625,-0.7340087890625,-0.6763916015625,-56.0,85.0,-251.0,118.0,18.0,973.0,7225,7295.440730421078,1089.2019926988858,
374,10.263652086257935,0.02547001838684082,39.26184837450505,36.439271017453024,101421.0,67.0,95.0,709.0,13.375,-1.0625,-57.875,3.25,4.3125,-9.5,265.75,6.8125,-1.1875,-0.0506591796875,0.032958984375,-0.7314453125,-0.67919921875,-48.0,74.0,-254.0,117.0,19.0,973.0,7379,7312.152584336863,1045.8956208788384,
375,10.290805101394653,0.02715301513671875,36.82832256251756,36.44029755739698,101421.0,74.0,85.0,737.0,13.375,-1.0625,-57.875,-4.125,9.0625,-3.875,265.8125,6.625,-1.125,-0.0484619140625,0.03216552734375,-0.7308349609375,-0.68011474609375,-29.0,48.0,-211.0,112.0,18.0,974.0,,7312.152584336863,1045.8956208788384,
376,10.3249351978302,0.034130096435546875,29.29965351514474,36.41669345092034,101421.0,86.0,34.0,869.0,12.25,-1.75,-58.6875,-11.3125,9.125,2.25,265.9375,6.375,-0.875,-0.0465087890625,0.0323486328125,-0.73028564453125,-0.6807861328125,-21.0,31.0,-140.0,109.0,15.0,974.0,7487,7347.1220674694905,1043.765432729924,
377,10.352322101593018,0.027386903762817383,36.51380267957413,36.416950351843006,0,0,0,0,0,0,0,0,0,0,0,0,0,0,0,0,0,0,0,0,0,0,0,,7347.1220674694905,1043.765432729924,
378,10.400944232940674,0.04862213134765625,20.566766044249178,36.34285421922001,101421.0,109.0,95.0,1135.0,14.1875,-0.1875,-58.1875,-4.8125,6.1875,21.9375,264.9375,5.6875,0.0,-0.03656005859375,0.03411865234375,-0.7364501953125,-0.67462158203125,8.0,84.0,145.0,99.0,0.0,975.0,7384,7354.497653975593,954.5580856679438,
379,10.42810320854187,0.02715897560119629,36.8202400077252,36.3440975238482,101421.0,144.0,159.0,1130.0,14.1875,-0.1875,-58.1875,3.3125,4.5625,27.375,264.4375,5.625,0.0625,-0.0360107421875,0.0335693359375,-0.739501953125,-0.67138671875,47.0,160.0,154.0,96.0,-1.0,975.0,8185,7520.598123180474,1470.6881912531012,
380,10.451406002044678,0.023302793502807617,42.913309937691196,36.35874445272321,101421.0,142.0,163.0,1133.0,14.1875,-0.1875,-58.1875,6.125,6.875,28.625,263.875,5.5,0.0,-0.03570556640625,0.0323486328125,-0.7427978515625,-0.66778564453125,48.0,163.0,157.0,94.0,0.0,976.0,,7520.598123180474,1470.6881912531012,
