Index,Time,Difference,Hz,AveHz,0x6103 Pressure,0x6103 Acceleration-X,0x6103 Acceleration-Y,0x6103 Acceleration-Z,0x6103 Magnetic-X,0x6103 Magnetic-Y,0x6103 Magnetic-Z,0x6103 Angular-Vel-X,0x6103 Angular-Vel-Y,0x6103 Angular-Vel-Z,0x6103 Heading,0x6103 Roll,0x6103 Pitch,0x6103 Quaternion-X,0x6103 Quaternion-Y,0x6103 Quaternion-Z,0x6103 Quaternion-W,0x6103 Linear-Acceleration-X,0x6103 Linear-Acceleration-Y,0x6103 Linear-Acceleration-Z,0x6103 Gravity-X,0x6103 Gravity-Y,0x6103 Gravity-Z,0x6103 Range,0x6103 Smoothed Range,0x6103 Velocity,
0,1.1920928955078125e-06,1.1920928955078125e-06,838860.8,0.0,101416.75,326.0,-455.0,823.0,0.875,30.5,-54.375,0.5,-2.375,3.3125,273.5625,20.3125,29.0,-0.048828125,-0.29620361328125,0.65301513671875,0.6953125,-14.0,-9.0,26.0,341.0,-445.0,803.0,1126,1132.4,,
1,0.026074886322021484,0.026073694229125977,38.352831448139646,38.35107803156374,101416.75,333.0,-448.0,825.0,0.875,30.1875,-54.75,2.1875,-3.0,3.125,273.5,20.375,29.0,-0.04852294921875,-0.2962646484375,0.65338134765625,0.6949462890625,-7.0,-2.0,21.0,341.0,-445.0,803.0,1158,1137.52,19.636649701447084,
2,0.05346417427062988,0.0273892879486084,36.5106242220075,37.40822760819639,101416.75,336.0,-439.0,815.0,0.875,30.1875,-54.75,1.4375,-2.0625,2.6875,273.375,20.375,28.9375,-0.0478515625,-0.2962646484375,0.654296875,0.69415283203125,-5.0,3.0,12.0,341.0,-445.0,804.0,1144,1138.816,22.404761630474727,
3,0.07683897018432617,0.02337479591369629,42.78112218357626,39.04268879194256,101416.75,338.0,-443.0,815.0,0.5,30.1875,-54.75,1.9375,-1.6875,2.75,273.375,20.375,28.9375,-0.04779052734375,-0.29620361328125,0.65435791015625,0.69415283203125,-2.0,1.0,11.0,341.0,-445.0,804.0,1158,1142.6528,36.57854642682196,
4,0.10083627700805664,0.02399730682373047,41.67134284465286,39.66826343341104,101416.75,340.0,-444.0,819.0,0.5,30.1875,-54.75,2.375,-1.25,2.6875,273.25,20.375,28.9375,-0.04742431640625,-0.2960205078125,0.65496826171875,0.693603515625,0.0,0.0,14.0,341.0,-444.0,804.0,1144,1142.92224,34.04348444574622,
5,0.1256420612335205,0.024805784225463867,40.31317820516517,39.795590353352395,101416.75,347.0,-439.0,810.0,1.5625,28.6875,-55.5625,3.75,-1.625,2.25,273.1875,20.375,28.875,-0.0469970703125,-0.2957763671875,0.65545654296875,0.69329833984375,5.0,5.0,5.0,341.0,-444.0,804.0,1153,1144.9377920000002,38.7644666969496,
6,0.15297698974609375,0.027334928512573242,36.5832308484008,39.22158495835619,101413.25,338.0,-435.0,791.0,1.5625,28.6875,-55.5625,2.9375,-0.625,1.8125,273.0625,20.375,28.75,-0.04608154296875,-0.29522705078125,0.65625,0.69287109375,-6.0,8.0,-14.0,341.0,-442.0,805.0,1148,1145.5502336000002,37.12852927065107,
7,0.18215298652648926,0.029175996780395508,34.274750149134206,38.42923541076302,101413.25,339.0,-435.0,790.0,1.25,29.0,-56.375,2.125,-0.875,1.75,273.0625,20.375,28.75,-0.0458984375,-0.2950439453125,0.65655517578125,0.69268798828125,-1.0,6.0,-15.0,341.0,-442.0,805.0,1130,1142.44018688,22.756068915572094,
8,0.20938396453857422,0.02723097801208496,36.722882283412865,38.20731935050443,101413.25,331.0,-428.0,761.0,1.25,29.0,-56.375,2.0625,-0.5625,1.4375,273.0,20.375,28.6875,-0.045654296875,-0.294921875,0.6568603515625,0.6923828125,-19.0,13.0,-45.0,341.0,-441.0,805.0,1158,1145.5521495040002,31.90848573516877,
9,0.23224091529846191,0.022856950759887695,43.750367689242616,38.75286139151556,101413.25,317.0,-448.0,790.0,0.5,29.375,-55.1875,-2.8125,-0.5,1.0625,273.0,20.375,28.75,-0.0457763671875,-0.2950439453125,0.65692138671875,0.69232177734375,-22.0,11.0,-34.0,341.0,-442.0,805.0,1139,1144.2417196032002,22.984458162553924,
10,0.25931501388549805,0.027074098587036133,36.93567107267716,38.563135431932814,101413.25,323.0,-465.0,825.0,0.5,29.375,-55.1875,-3.4375,-0.8125,2.8125,272.9375,20.3125,28.875,-0.0467529296875,-0.2958984375,0.6571044921875,0.69171142578125,-17.0,-20.0,20.0,341.0,-444.0,804.0,1139,1143.1933756825601,16.81388372391842,
11,0.28395605087280273,0.024641036987304688,40.58270763991021,38.738389149268095,101413.25,329.0,-463.0,837.0,0.875,29.375,-55.875,-1.0625,-1.625,2.75,272.8125,20.3125,29.0,-0.04693603515625,-0.29632568359375,0.657470703125,0.691162109375,-14.0,-10.0,19.0,341.0,-445.0,804.0,1158,1146.1547005460482,27.150353467699695,
12,0.31326913833618164,0.029313087463378906,34.114454891498845,38.30572032640611,101413.25,325.0,-440.0,812.0,0.875,29.375,-55.875,0.9375,-1.9375,2.6875,272.75,20.3125,29.0,-0.04669189453125,-0.29644775390625,0.6578369140625,0.6907958984375,-16.0,4.0,8.0,341.0,-445.0,804.0,1148,1146.5237604368385,25.694345820592673,
13,0.33885717391967773,0.025588035583496094,39.08076478700011,38.364246061620946,101413.25,338.0,-438.0,808.0,0.875,30.5,-54.375,0.5625,-1.4375,2.75,272.6875,20.3125,29.0,-0.04669189453125,-0.2965087890625,0.658203125,0.69036865234375,-9.0,8.0,13.0,341.0,-446.0,803.0,1181,1153.419008349471,50.07206742069738,
14,0.3699772357940674,0.03112006187438965,32.13361220283926,37.84016594954108,101413.25,346.0,-431.0,802.0,0.875,30.5,-55.5625,1.4375,-0.875,1.9375,272.5625,20.3125,28.9375,-0.0462646484375,-0.29644775390625,0.658935546875,0.6898193359375,4.0,13.0,-2.0,341.0,-445.0,804.0,1158,1154.335206679577,48.00893686267916,
15,0.39586520195007324,0.02588796615600586,38.627986222394135,37.8916861752648,101413.25,347.0,-433.0,795.0,0.875,30.5,-55.5625,0.625,0.25,1.1875,272.5625,20.3125,28.9375,-0.04620361328125,-0.2962646484375,0.6591796875,0.68963623046875,1.0,8.0,-5.0,340.0,-445.0,804.0,1158,1155.0681653436616,46.039314894195925,
16,0.4217653274536133,0.02590012550354004,38.60985151841521,37.935787886119485,101413.25,348.0,-441.0,804.0,1.5625,30.1875,-55.5625,0.0625,1.3125,0.1875,272.5625,20.3125,28.9375,-0.04632568359375,-0.296142578125,0.6591796875,0.68963623046875,7.0,4.0,0.0,340.0,-445.0,804.0,1177,1159.4545322749293,58.3710809969297,
17,0.45037317276000977,0.028607845306396484,34.9554462871906,37.746475652222706,101413.25,337.0,-448.0,797.0,1.5625,30.1875,-55.5625,-0.5,3.125,-0.375,272.5625,20.25,28.9375,-0.04681396484375,-0.295654296875,0.6591796875,0.68988037109375,-2.0,-2.0,-7.0,339.0,-445.0,804.0,1177,1162.9636258199434,64.80016599018363,
18,0.4829390048980713,0.03256583213806152,30.70703047784993,37.27178757035594,101413.25,333.0,-449.0,808.0,0.875,29.375,-55.0625,-1.5625,3.75,-1.0,272.625,20.1875,28.9375,-0.0474853515625,-0.2952880859375,0.65887451171875,0.69024658203125,-5.0,-3.0,3.0,338.0,-445.0,805.0,1144,1159.1709006559547,46.67381667069422,
19,0.515984058380127,0.033045053482055664,30.261715283439514,36.822843053811255,101417.5,336.0,-445.0,813.0,0.875,29.375,-55.0625,-1.25,3.5,-0.8125,272.6875,20.0625,28.9375,-0.0482177734375,-0.294921875,0.6585693359375,0.69061279296875,0.0,1.0,7.0,337.0,-446.0,805.0,1153,1157.9367205247638,38.27159422976711,
20,0.5485870838165283,0.03260302543640137,30.672000117004394,36.45729290755391,101417.5,347.0,-441.0,810.0,1.25,29.375,-55.5625,0.1875,2.3125,-2.125,272.75,20.0,28.9375,-0.048828125,-0.29437255859375,0.65814208984375,0.69122314453125,11.0,4.0,4.0,336.0,-446.0,805.0,1200,1166.349376419811,60.24773306651106,
21,0.5818641185760498,0.033277034759521484,30.050754438505738,36.090900486167875,101417.5,348.0,-437.0,806.0,1.25,29.75,-55.1875,0.1875,2.3125,-2.25,272.875,20.0,28.875,-0.04888916015625,-0.29400634765625,0.65771484375,0.6917724609375,12.0,8.0,0.0,335.0,-445.0,806.0,1635,1260.079501135849,335.889055893077,
22,0.6087539196014404,0.026889801025390625,37.188821109377216,36.139397696861984,101417.5,326.0,-442.0,801.0,1.25,29.75,-55.1875,-0.5,2.375,-3.1875,272.9375,20.0,28.875,-0.04901123046875,-0.29364013671875,0.65716552734375,0.69244384765625,-9.0,2.0,-4.0,335.0,-445.0,806.0,1654,1338.8636009086792,595.2889295752807,
23,0.6325759887695312,0.02382206916809082,41.977881641762664,36.35926814854124,101417.5,321.0,-440.0,808.0,1.25,29.375,-54.375,-1.25,1.5625,-3.0625,273.0625,20.0,28.875,-0.0491943359375,-0.2935791015625,0.65673828125,0.69287109375,-13.0,4.0,1.0,335.0,-444.0,806.0,1153,1301.6908807269433,379.71683180862533,
24,0.6583042144775391,0.025728225708007812,38.867818222255174,36.45730875207524,101417.5,309.0,-444.0,810.0,1.25,29.375,-54.375,-1.1875,0.5625,-1.5625,273.125,20.0,28.875,-0.04949951171875,-0.2935791015625,0.65631103515625,0.69329833984375,-26.0,0.0,3.0,335.0,-445.0,806.0,1158,1272.9527045815548,230.04612798195188,
25,0.6853749752044678,0.02707076072692871,36.94022528909752,36.47638286259541,101417.5,311.0,-444.0,814.0,1.5625,30.1875,-55.0625,-1.125,-1.125,-1.4375,273.125,20.0,28.875,-0.04962158203125,-0.29364013671875,0.6561279296875,0.69342041015625,-23.0,0.0,7.0,335.0,-445.0,806.0,1167,1251.7621636652439,128.7631796391201,
26,0.7116501331329346,0.026275157928466797,38.05876268079778,36.53480662687273,101417.5,325.0,-450.0,832.0,1.5625,30.1875,-55.0625,-0.25,-0.625,-1.25,273.1875,20.0,28.875,-0.049560546875,-0.2938232421875,0.65594482421875,0.69354248046875,-10.0,-4.0,26.0,335.0,-445.0,806.0,1121,1225.6097309321951,16.35393858394518,
27,0.7390470504760742,0.02739691734313965,36.5004568753209,36.5335332609843,101417.5,315.0,-449.0,842.0,0.875,29.75,-55.5625,0.9375,0.6875,-2.3125,273.1875,20.0,28.8125,-0.04949951171875,-0.29345703125,0.65570068359375,0.69384765625,-20.0,-4.0,35.0,335.0,-444.0,806.0,1130,1206.487784745756,-55.07743248948213,
28,0.7667679786682129,0.027720928192138672,36.07382815859637,36.51691356312604,101417.5,300.0,-520.0,1020.0,2.0,29.375,-55.5625,12.5,1.0,-6.1875,273.3125,20.0,28.625,-0.0484619140625,-0.292236328125,0.65521240234375,0.6949462890625,-35.0,-79.0,212.0,336.0,-441.0,807.0,1130,1191.1902277966049,-104.75383330353598,
29,0.7937891483306885,0.027021169662475586,37.0080204702872,36.53363120544796,101417.5,336.0,-483.0,890.0,2.0,29.375,-55.5625,39.3125,-5.8125,-9.6875,273.375,20.125,27.9375,-0.04376220703125,-0.28912353515625,0.6558837890625,0.6959228515625,-2.0,-51.0,77.0,338.0,-431.0,812.0,1130,1178.952182237284,-139.56903403074784,
30,0.8230001926422119,0.029211044311523438,34.23362716291218,36.45199632783329,101417.5,368.0,-416.0,841.0,1.25,29.375,-54.75,32.125,3.5,-6.25,273.375,20.3125,26.8125,-0.0362548828125,-0.2835693359375,0.656982421875,0.69757080078125,27.0,-1.0,21.0,341.0,-414.0,820.0,1191,1181.3617457898272,-117.36332059936245,
31,0.8519301414489746,0.028929948806762695,34.566255428915206,36.38796010583071,101417.5,355.0,-381.0,776.0,1.25,29.375,-54.75,37.375,11.5625,1.25,273.3125,20.125,25.8125,-0.0321044921875,-0.27667236328125,0.65887451171875,0.69879150390625,17.0,20.0,-52.0,337.0,-401.0,828.0,1368,1218.6893966318617,23.400722817286322,
32,0.8774831295013428,0.025552988052368164,39.13436651520382,36.46793758665765,101417.5,312.0,-346.0,730.0,1.25,27.5625,-56.75,23.4375,4.1875,0.9375,273.1875,19.875,25.0625,-0.0291748046875,-0.2706298828125,0.66094970703125,0.6993408203125,-21.0,44.0,-105.0,333.0,-390.0,835.0,1378,1250.5515173054894,145.75104137489768,
33,0.9065201282501221,0.029036998748779297,34.4388209212579,36.402942385516255,101415.75,301.0,-342.0,720.0,1.25,27.5625,-56.75,8.6875,-1.3125,-0.0625,273.125,19.8125,24.625,-0.02685546875,-0.26824951171875,0.661865234375,0.699462890625,-32.0,42.0,-117.0,333.0,-385.0,838.0,1177,1235.8412138443916,80.51538657799738,
34,0.9359660148620605,0.029445886611938477,33.960600785393304,36.32610528600315,101415.75,317.0,-365.0,758.0,0.0625,26.0625,-56.375,-2.875,2.0625,2.0,273.125,19.8125,24.625,-0.026611328125,-0.26800537109375,0.66204833984375,0.69940185546875,-13.0,21.0,-84.0,333.0,-384.0,838.0,1121,1212.8729710755133,-5.537684421389699,
35,0.960078239440918,0.024112224578857422,41.47273913817312,36.455362242541334,101415.75,327.0,-378.0,775.0,0.0625,26.0625,-56.375,-4.5625,-0.6875,1.25,273.0625,19.8125,24.75,-0.02752685546875,-0.2685546875,0.66204833984375,0.69915771484375,-4.0,8.0,-61.0,332.0,-386.0,837.0,1065,1183.2983768604108,-127.63785907927762,
36,0.9862191677093506,0.026140928268432617,38.25418859389108,36.50304230409116,101415.75,343.0,-391.0,792.0,1.25,26.0625,-56.375,-7.625,-1.625,-0.375,273.125,19.875,24.9375,-0.0283203125,-0.27001953125,0.66168212890625,0.69891357421875,7.0,4.0,-40.0,333.0,-388.0,836.0,1083,1163.2387014883288,-191.6107336529355,
37,1.0120160579681396,0.025796890258789062,38.76436229205176,36.560684693369595,101415.75,344.0,-395.0,817.0,1.25,26.0625,-56.375,-9.6875,1.3125,0.375,273.125,19.8125,25.125,-0.0294189453125,-0.27099609375,0.6612548828125,0.69891357421875,11.0,-4.0,-17.0,333.0,-391.0,834.0,1116,1153.7909611906632,-209.0732230616347,
38,1.0391302108764648,0.027114152908325195,36.88110793581007,36.56904553660173,101415.75,341.0,-403.0,844.0,1.5625,27.1875,-55.875,-10.875,1.625,-0.0625,273.1875,19.75,25.4375,-0.03173828125,-0.27239990234375,0.6605224609375,0.698974609375,9.0,-6.0,11.0,332.0,-396.0,833.0,1079,1138.8327689525306,-243.3333710013877,
39,1.0623490810394287,0.023218870162963867,43.068417755963324,36.71109684760251,101415.75,338.0,-407.0,860.0,1.5625,27.1875,-55.875,-9.625,0.9375,-1.25,273.25,19.75,25.625,-0.032958984375,-0.27337646484375,0.659912109375,0.69903564453125,6.0,-8.0,28.0,332.0,-399.0,831.0,1102,1131.4662151620246,-250.7266155083778,
40,1.0906739234924316,0.02832484245300293,35.304697692819204,36.67457260912277,101415.75,334.0,-416.0,867.0,2.375,28.0,-55.1875,-8.125,1.375,-1.125,273.375,19.75,25.8125,-0.03448486328125,-0.274658203125,0.65911865234375,0.69921875,2.0,-14.0,37.0,332.0,-402.0,830.0,1126,1130.3729721296197,-229.5136154339235,
41,1.1153180599212646,0.024644136428833008,40.57760363759493,36.76081422271094,101415.75,325.0,-414.0,872.0,1.25,27.5625,-56.0,-3.625,1.75,-1.625,273.4375,19.6875,25.9375,-0.03570556640625,-0.275146484375,0.6585693359375,0.69952392578125,-5.0,-9.0,42.0,331.0,-404.0,829.0,1415,1187.2983777036957,24.427400538888037,
42,1.1439611911773682,0.028643131256103516,34.91238409162796,36.71453220958788,101415.75,325.0,-399.0,834.0,1.25,27.5625,-56.0,-0.1875,0.3125,-2.1875,273.5,19.75,25.9375,-0.0357666015625,-0.27508544921875,0.65814208984375,0.69989013671875,-5.0,4.0,4.0,331.0,-404.0,829.0,1088,1167.4387021629566,-47.35020155634,
43,1.1760361194610596,0.032074928283691406,31.176998780959178,36.563502845223454,101415.75,313.0,-403.0,836.0,0.875,28.25,-56.75,-0.6875,1.9375,-2.3125,273.5625,19.6875,25.9375,-0.035888671875,-0.27496337890625,0.65771484375,0.70037841796875,-20.0,1.0,4.0,331.0,-403.0,829.0,1126,1159.1509617303652,-68.45386873708671,
44,1.199341058731079,0.02330493927001953,42.9093587592585,36.68681204540155,101415.75,304.0,-400.0,811.0,0.875,28.25,-56.75,0.1875,0.5,-2.5625,273.625,19.75,25.9375,-0.035888671875,-0.27484130859375,0.65740966796875,0.70068359375,-26.0,3.0,-18.0,331.0,-403.0,829.0,1134,1154.1207693842923,-83.1927146639499,
45,1.228452205657959,0.029111146926879883,34.35110277557104,36.63146176362474,101415.75,305.0,-403.0,804.0,1.25,27.5625,-56.0,-1.875,-0.0625,-1.375,273.6875,19.75,25.9375,-0.03582763671875,-0.2750244140625,0.65704345703125,0.70098876953125,-26.0,0.0,-24.0,331.0,-403.0,829.0,1644,1252.0966155074339,261.684392772402,
46,1.2555370330810547,0.027084827423095703,36.92104012253306,36.637708636213794,101415.75,314.0,-416.0,829.0,1.25,27.5625,-56.0,-4.1875,-0.375,-0.0625,273.6875,19.75,26.0,-0.03662109375,-0.275634765625,0.65673828125,0.70098876953125,-17.0,-10.0,0.0,331.0,-405.0,829.0,1126,1226.8772924059472,142.40358948585038,
47,1.2828319072723389,0.02729487419128418,36.6369155245757,36.63769176114056,101415.5,315.0,-424.0,840.0,0.875,26.875,-56.375,-4.625,-0.375,0.0,273.6875,19.75,26.0625,-0.03717041015625,-0.276123046875,0.65655517578125,0.700927734375,-12.0,-18.0,18.0,331.0,-406.0,828.0,1359,1253.3018339247578,224.9746000772963,
48,1.311683177947998,0.02885127067565918,34.660518465263486,36.59420262985409,101415.5,319.0,-420.0,837.0,0.875,26.875,-56.375,-2.6875,-0.75,0.75,273.6875,19.75,26.25,-0.03778076171875,-0.27691650390625,0.6563720703125,0.70074462890625,-11.0,-9.0,10.0,331.0,-408.0,827.0,1368,1276.2414671398064,281.98709813322307,
49,1.3414349555969238,0.02975177764892578,33.61143699714716,36.52804766683267,101415.5,328.0,-415.0,831.0,1.25,26.0625,-56.375,-1.9375,-0.3125,1.5625,273.6875,19.75,26.3125,-0.03814697265625,-0.27716064453125,0.65643310546875,0.7005615234375,-3.0,-6.0,4.0,331.0,-409.0,827.0,1368,1294.5931737118453,315.47111124352244,
50,1.3660261631011963,0.02459120750427246,40.66494090728406,36.60252003262397,101415.5,336.0,-415.0,840.0,1.25,26.0625,-56.375,-1.3125,-1.1875,0.75,273.6875,19.75,26.375,-0.03826904296875,-0.277587890625,0.65655517578125,0.7003173828125,1.0,0.0,7.0,332.0,-409.0,826.0,1144,1264.4745389694763,161.44674991851912,
51,1.3942689895629883,0.028242826461791992,35.40722106382799,36.5783076162263,101415.5,333.0,-408.0,813.0,1.25,26.875,-56.25,-0.875,-0.25,0.5,273.625,19.75,26.375,-0.03826904296875,-0.27764892578125,0.6566162109375,0.70025634765625,2.0,5.0,-11.0,332.0,-410.0,826.0,1350,1281.5796311755812,205.86645303253906,
52,1.4204821586608887,0.02621316909790039,38.1487639386608,36.607288365396464,101415.5,327.0,-411.0,829.0,0.5,27.1875,-56.25,-1.25,-0.5,-0.0625,273.6875,19.75,26.375,-0.0384521484375,-0.27783203125,0.65655517578125,0.7001953125,-4.0,-1.0,2.0,332.0,-410.0,826.0,1649,1355.063704940465,465.6124660600539,
53,1.447495937347412,0.027013778686523438,37.0181458730495,36.614955961205936,101415.5,323.0,-408.0,815.0,0.5,27.1875,-56.25,-1.1875,-0.625,-0.3125,273.6875,19.75,26.4375,-0.03863525390625,-0.27801513671875,0.656494140625,0.7001953125,-18.0,1.0,-4.0,332.0,-410.0,826.0,1363,1356.650963952372,424.9269580181571,
54,1.4755070209503174,0.028011083602905273,35.700154059598084,36.59758932574965,101415.5,316.0,-429.0,854.0,1.5625,28.6875,-55.75,-2.0,-0.25,-0.75,273.6875,19.75,26.4375,-0.03887939453125,-0.27813720703125,0.6563720703125,0.7001953125,-15.0,-17.0,28.0,331.0,-411.0,825.0,1350,1355.3207711618977,377.68545346145163,
55,1.5024590492248535,0.026952028274536133,37.102958998628864,36.60665495567118,101415.5,326.0,-435.0,863.0,1.5625,28.6875,-55.75,0.25,-0.875,-0.3125,273.6875,19.8125,26.5,-0.038818359375,-0.27850341796875,0.65631103515625,0.70013427734375,-6.0,-26.0,49.0,332.0,-411.0,825.0,1626,1409.4566169295183,540.7769147025188,
56,1.532189130783081,0.02973008155822754,33.635965580567294,36.549012700135236,101415.5,336.0,-422.0,860.0,1.5625,28.6875,-56.75,3.0,0.4375,0.5,273.6875,19.8125,26.4375,-0.03857421875,-0.27825927734375,0.65643310546875,0.70013427734375,3.0,-11.0,35.0,332.0,-411.0,825.0,1363,1400.1652935436146,455.446959871649,
57,1.5614380836486816,0.029248952865600586,34.189258145240835,36.50480963472184,101415.5,321.0,-388.0,801.0,1.5625,28.6875,-56.75,5.25,-1.875,-0.75,273.625,19.8125,26.25,-0.03704833984375,-0.2772216796875,0.65692138671875,0.7001953125,-11.0,19.0,-25.0,332.0,-408.0,827.0,1916,1503.3322348348918,762.6223826707223,
58,1.5908050537109375,0.02936697006225586,34.0518615941676,36.45952712100139,101415.5,324.0,-387.0,804.0,1.5625,27.1875,-56.25,1.4375,-1.0,-0.0625,273.625,19.875,26.125,-0.0362548828125,-0.27703857421875,0.6571044921875,0.70013427734375,-12.0,18.0,-31.0,333.0,-406.0,827.0,1433,1489.2657878679133,638.4612738795253,
59,1.6158432960510254,0.02503824234008789,39.93890571140186,36.51344170823412,101415.5,322.0,-396.0,806.0,1.5625,27.1875,-56.25,-0.5,0.3125,0.75,273.625,19.875,26.125,-0.0362548828125,-0.27703857421875,0.6571044921875,0.7000732421875,-12.0,5.0,-17.0,333.0,-406.0,827.0,1400,1471.4126302943307,503.3115887933611,
60,1.6453640460968018,0.029520750045776367,33.87447806879396,36.46609401872758,101412.0,338.0,-410.0,816.0,-0.1875,27.1875,-55.875,-2.625,-0.1875,0.5,273.5625,19.875,26.1875,-0.0364990234375,-0.27752685546875,0.65704345703125,0.699951171875,3.0,-4.0,2.0,333.0,-407.0,827.0,1134,1403.9301042354646,224.38689501323717,
61,1.674328088760376,0.02896404266357422,34.5255671528761,36.43252502868935,101412.0,335.0,-422.0,850.0,1.25,27.5625,-57.0625,-3.0625,1.25,-0.1875,273.625,19.875,26.25,-0.03704833984375,-0.2777099609375,0.6568603515625,0.70001220703125,1.0,-13.0,23.0,333.0,-408.0,826.0,1363,1395.7440833883716,173.6855042647981,
62,1.7008790969848633,0.026551008224487305,37.66335317834469,36.451738462720236,101412.0,326.0,-426.0,839.0,1.25,27.5625,-57.0625,-1.0625,0.625,-0.875,273.625,19.8125,26.3125,-0.03741455078125,-0.27783203125,0.6566162109375,0.7001953125,4.0,-11.0,20.0,333.0,-409.0,826.0,1369,1390.3952667106973,136.17151667657185,
63,1.728342056274414,0.02746295928955078,36.412681876584365,36.451117862514884,101412.0,333.0,-417.0,846.0,0.0625,28.0,-55.5,0.125,1.5625,-0.875,273.6875,19.8125,26.3125,-0.0374755859375,-0.2777099609375,0.656494140625,0.7003173828125,0.0,-8.0,19.0,333.0,-409.0,826.0,1112,1334.716213368558,-80.18800064475413,
64,1.7514581680297852,0.023116111755371094,43.25987045670201,36.540981205388185,101412.0,330.0,-408.0,828.0,0.0625,28.0,-55.5,0.9375,1.4375,-0.8125,273.6875,19.8125,26.25,-0.03765869140625,-0.27734375,0.6563720703125,0.7005615234375,-1.0,0.0,1.0,332.0,-408.0,827.0,1372,1342.1729706948465,-39.91136498404862,
65,1.7829861640930176,0.03152799606323242,31.717842072626627,36.45569511924097,101412.0,338.0,-400.0,833.0,1.25,28.0,-55.875,-0.125,1.9375,-0.8125,273.75,19.75,26.25,-0.037841796875,-0.27685546875,0.67181396484375,0.70098876953125,2.0,8.0,7.0,332.0,-408.0,827.0,1372,1348.1383765558774,-16.999248385714036,
66,1.8111262321472168,0.02814006805419922,35.53651675873522,36.441413540652206,101412.0,339.0,-397.0,833.0,1.25,28.0,-55.875,0.3125,2.5,-1.75,273.8125,19.75,26.1875,-0.03802490234375,-0.27655029296875,0.65594482421875,0.7012939453125,8.0,10.0,5.0,331.0,-408.0,827.0,1097,1297.910701244702,-193.79098609193179,
67,1.8385531902313232,0.027426958084106445,36.460477933186716,36.44169793726239,101412.0,335.0,-393.0,833.0,1.5625,28.0,-56.6875,0.6875,3.125,-2.8125,273.875,19.6875,26.1875,-0.03814697265625,-0.27606201171875,0.655517578125,0.701904296875,-2.0,14.0,0.0,330.0,-407.0,828.0,1949,1428.1285609957617,300.3686527132928,
68,1.8658719062805176,0.027318716049194336,36.604941396193155,36.44408802721787,101412.0,322.0,-400.0,865.0,1.5625,28.0,-56.6875,0.8125,3.9375,-3.6875,273.9375,19.625,26.125,-0.03826904296875,-0.27545166015625,0.65509033203125,0.7025146484375,-7.0,6.0,36.0,330.0,-406.0,828.0,1097,1361.9028487966095,27.912956044851484,
69,1.8914101123809814,0.025538206100463867,39.15701815805443,36.48071856459522,101412.0,304.0,-435.0,1009.0,0.5,26.875,-55.5,2.0625,4.875,-5.3125,274.1875,19.625,25.9375,-0.03814697265625,-0.27410888671875,0.65423583984375,0.703857421875,-25.0,-30.0,179.0,329.0,-404.0,830.0,1616,1412.7222790372878,224.1153957119881,
70,1.9171850681304932,0.02577495574951172,38.797350797350795,36.51186375463438,101412.0,301.0,-418.0,975.0,0.5,26.875,-55.5,27.6875,-9.5,-16.4375,274.375,19.875,25.375,-0.03375244140625,-0.272216796875,0.6534423828125,0.70550537109375,-32.0,-23.0,142.0,333.0,-395.0,833.0,1626,1455.3778232298303,367.19606728978636,
71,1.9453151226043701,0.028130054473876953,35.549166850304275,36.49794276258226,101412.0,332.0,-415.0,910.0,1.5625,28.0,-56.6875,39.875,3.5625,-3.4375,274.4375,19.9375,24.0,-0.02557373046875,-0.2647705078125,0.65472412109375,0.70751953125,-12.0,-31.0,39.0,334.0,-375.0,841.0,1359,1436.102258583864,261.95343418748007,
72,1.9732000827789307,0.027884960174560547,35.861625540792424,36.48895042544279,101412.0,306.0,-331.0,804.0,1.5625,26.5,-56.25,38.625,11.75,9.3125,274.125,19.625,23.25,-0.02252197265625,-0.2587890625,0.657470703125,0.707275390625,-23.0,33.0,-43.0,330.0,-364.0,848.0,1364,1421.6818068670914,184.04400680913398,
73,2.002906322479248,0.029706239700317383,33.66296138751334,36.447036579144026,101412.0,302.0,-278.0,789.0,1.5625,26.5,-56.25,26.6875,10.3125,8.5,273.8125,19.25,22.375,-0.01922607421875,-0.2518310546875,0.66082763671875,0.706787109375,-22.0,74.0,-66.0,324.0,-353.0,855.0,1424,1422.1454454936732,167.20035104665877,
74,2.0314130783081055,0.028506755828857422,35.079403843902114,36.4278446319899,101413.5,301.0,-298.0,817.0,1.25,25.0,-57.0625,20.5,8.75,5.3125,273.6875,19.0625,22.0,-0.017822265625,-0.2484130859375,0.662353515625,0.70660400390625,-26.0,38.0,-50.0,321.0,-347.0,859.0,1107,1359.1163563949387,-70.62197109878633,
75,2.0650460720062256,0.03363299369812012,29.73270857110451,36.318802285673115,101413.5,328.0,-268.0,808.0,1.25,25.0,-57.0625,12.375,5.875,-0.4375,273.4375,18.75,21.3125,-0.015869140625,-0.242431640625,0.664794921875,0.70635986328125,13.0,69.0,-56.0,315.0,-338.0,864.0,1112,1309.6930851159511,-210.50854614578554,
76,2.0909321308135986,0.025886058807373047,38.630832427653026,36.34742557159318,101413.5,241.0,-255.0,761.0,2.75,21.5625,-57.5,9.375,8.25,-4.3125,273.25,18.625,21.0625,-0.0147705078125,-0.24053955078125,0.6661376953125,0.705810546875,-52.0,71.0,-103.0,313.0,-334.0,866.0,1144,1276.554468092761,-317.4749276419098,
77,2.117302179336548,0.02637004852294922,37.92181114607067,36.36703383743164,101413.5,217.0,-285.0,801.0,2.75,21.5625,-57.5,-7.6875,9.9375,-3.0,273.4375,18.375,21.125,-0.01690673828125,-0.23919677734375,0.66534423828125,0.70697021484375,-92.0,50.0,-66.0,309.0,-335.0,867.0,1158,1252.8435744742087,-375.64343786845006,
78,2.144529104232788,0.027226924896240234,36.728349007863535,36.37162109203677,101413.5,199.0,-296.0,811.0,2.0,21.25,-58.75,-14.0625,5.1875,-0.1875,273.375,18.1875,21.4375,-0.02093505859375,-0.2406005859375,0.665283203125,0.70648193359375,-104.0,33.0,-40.0,306.0,-342.0,866.0,1191,1240.474859579367,-383.50734182525605,
79,2.1776342391967773,0.03310513496398926,30.206794235630486,36.277901301340314,101413.5,212.0,-328.0,857.0,3.5,22.0,-58.75,-17.8125,3.125,1.625,273.4375,18.0,22.125,-0.0250244140625,-0.242919921875,0.6646728515625,0.70611572265625,-91.0,22.0,-6.0,303.0,-351.0,863.0,2197,1431.7798876634936,232.7145543151421,
80,2.208132266998291,0.030498027801513672,32.78900545662065,36.229713770158824,101413.5,231.0,-327.0,855.0,3.5,22.0,-58.75,-15.5,-2.3125,2.0625,273.4375,18.0,22.5625,-0.02777099609375,-0.24566650390625,0.66412353515625,0.70556640625,-72.0,31.0,-5.0,303.0,-358.0,860.0,2164,1578.2239101307948,689.6184840606096,
81,2.2359321117401123,0.02779984474182129,35.97142391574686,36.22650239454803,101413.5,244.0,-331.0,862.0,3.0,23.0625,-57.5625,-16.3125,-3.25,1.8125,273.4375,18.0625,22.9375,-0.0294189453125,-0.24786376953125,0.6636962890625,0.70513916015625,-60.0,31.0,3.0,304.0,-363.0,858.0,2108,1684.1791281046358,1001.7926418367881,
82,2.26438307762146,0.028450965881347656,35.14819159990614,36.21295389918475,101413.5,284.0,-345.0,896.0,3.0,23.0625,-57.5625,-20.25,-0.875,3.3125,273.4375,18.0625,23.5,-0.03289794921875,-0.25128173828125,0.66302490234375,0.70440673828125,-19.0,27.0,41.0,304.0,-372.0,854.0,2150,1777.3433024837086,1229.0686027853812,
83,2.2897191047668457,0.025336027145385742,39.46948723498358,36.24898784624134,101413.5,295.0,-353.0,871.0,3.5,23.0625,-56.375,-18.5,0.6875,1.25,273.4375,18.0625,23.875,-0.0352783203125,-0.25347900390625,0.66259765625,0.703857421875,-4.0,35.0,43.0,304.0,-378.0,852.0,2122,1846.274641986967,1378.230204968261,
84,2.3156402111053467,0.025921106338500977,38.57860027041694,36.27506535650608,101413.5,293.0,-342.0,861.0,3.5,23.0625,-56.375,-20.125,5.0625,2.75,273.5,17.9375,24.4375,-0.039306640625,-0.2562255859375,0.66168212890625,0.70355224609375,-9.0,43.0,12.0,302.0,-386.0,848.0,2141,1905.2197135895738,1467.8090199982419,
85,2.3431529998779297,0.027512788772583008,36.346733450609634,36.27590686755334,101413.5,286.0,-348.0,851.0,3.0625,24.5625,-57.1875,-14.8125,11.6875,5.625,273.5,17.625,25.0,-0.0445556640625,-0.25775146484375,0.6611328125,0.70318603515625,-10.0,47.0,5.0,297.0,-395.0,846.0,2038,1931.775770871659,1417.550711551525,
86,2.3716559410095215,0.028502941131591797,35.08409870347135,36.26158352606287,101413.5,290.0,-350.0,863.0,3.875,25.375,-57.1875,-21.625,13.8125,4.0,273.5,17.1875,25.4375,-0.0501708984375,-0.25762939453125,0.6610107421875,0.70294189453125,0.0,52.0,18.0,290.0,-403.0,845.0,2272,1999.8206166973273,1514.5248491173961,
87,2.400559902191162,0.028903961181640625,34.5973340372179,36.24154511644925,101410.25,300.0,-391.0,860.0,3.875,25.375,-57.1875,-27.1875,19.4375,2.3125,273.6875,16.875,25.875,-0.05499267578125,-0.2581787109375,0.65997314453125,0.703369140625,16.0,40.0,-1.0,285.0,-410.0,843.0,1958,1991.4564933578617,1334.1347272952587,
88,2.4275782108306885,0.027018308639526367,37.01193932387953,36.25011940187395,101410.25,318.0,-372.0,844.0,4.5625,26.875,-54.75,-28.375,20.5,-1.4375,273.9375,16.375,26.5625,-0.063232421875,-0.25909423828125,0.65753173828125,0.70465087890625,33.0,45.0,16.0,276.0,-421.0,841.0,1546,1902.3651946862894,870.9770804939465,
89,2.4540131092071533,0.026434898376464844,37.828781702081606,36.26712492532457,101410.25,290.0,-401.0,829.0,4.5625,26.875,-54.75,-41.25,22.875,-7.1875,274.4375,15.9375,27.375,-0.0718994140625,-0.26092529296875,0.6536865234375,0.70672607421875,21.0,32.0,-7.0,269.0,-434.0,837.0,1475,1816.8921557490316,460.5452793074471,
90,2.4834630489349365,0.029449939727783203,33.955926879422286,36.239717775787966,101410.25,275.0,-411.0,902.0,5.375,28.0,-54.375,-50.6875,29.6875,15.625,274.8125,15.25,28.8125,-0.085693359375,-0.26483154296875,0.64984130859375,0.707275390625,17.0,45.0,73.0,258.0,-456.0,828.0,1419,1737.3137245992255,144.27481244650642,
91,2.510288953781128,0.026825904846191406,37.27740054747769,36.25080684951868,101410.25,275.0,-414.0,830.0,5.375,28.0,-54.375,-1.625,8.125,-6.8125,274.9375,14.625,29.1875,-0.0919189453125,-0.2633056640625,0.64886474609375,0.70794677734375,27.0,48.0,2.0,248.0,-462.0,828.0,1372,1664.2509796793806,-142.51158954566884,
92,2.5359630584716797,0.025674104690551758,38.94975159028648,36.27813098170468,101410.25,294.0,-432.0,826.0,7.1875,29.0,-54.0,-7.5,-1.625,-15.875,275.25,14.8125,29.25,-0.09185791015625,-0.264404296875,0.64691162109375,0.70928955078125,43.0,30.0,0.0,251.0,-463.0,826.0,1341,1599.6007837435047,-380.0713377876735,
93,2.559536933898926,0.023573875427246094,42.41983899025041,36.33469740885267,101410.25,300.0,-416.0,793.0,7.1875,29.0,-54.0,-2.9375,-5.5,-17.5625,275.6875,15.125,29.25,-0.0909423828125,-0.26629638671875,0.643798828125,0.7115478515625,43.0,46.0,-31.0,256.0,-463.0,825.0,1355,1550.6806269948038,-549.5827212746768,
94,2.5855021476745605,0.025965213775634766,38.513066314069015,36.356573938468784,101410.25,318.0,-407.0,771.0,6.75,29.75,-52.75,-4.375,-5.8125,-15.5625,276.0,15.375,29.3125,-0.09002685546875,-0.2677001953125,0.641845703125,0.712890625,57.0,55.0,-52.0,260.0,-462.0,824.0,1369,1514.344501595843,-634.5660098558596,
95,2.6115589141845703,0.026056766510009766,38.37774727788453,36.37674014704841,101410.25,324.0,-429.0,778.0,6.75,29.75,-52.75,-12.5,0.3125,-14.625,276.4375,15.6875,29.4375,-0.0902099609375,-0.26995849609375,0.6385498046875,0.71502685546875,58.0,35.0,-43.0,265.0,-464.0,821.0,1364,1484.2756012766745,-686.5070746075687,
96,2.6368682384490967,0.025309324264526367,39.51112995148603,36.40682480838082,101410.25,324.0,-450.0,796.0,7.5625,31.0,-53.1875,-21.5,8.5625,-7.6875,276.875,15.6875,29.6875,-0.09222412109375,-0.271240234375,0.6363525390625,0.71624755859375,53.0,21.0,-36.0,265.0,-468.0,819.0,1355,1458.4204810213396,-720.0128687787955,
97,2.6643810272216797,0.027512788772583008,36.346733450609634,36.406204296218135,101410.25,344.0,-453.0,843.0,7.5625,31.0,-53.1875,-26.375,8.5625,-4.8125,277.0625,15.5625,30.3125,-0.0975341796875,-0.27374267578125,0.63330078125,0.71728515625,80.0,23.0,28.0,263.0,-477.0,814.0,1369,1440.5363848170716,-713.0144296750746,
98,2.6925430297851562,0.028162002563476562,35.5088384693532,36.39681851540164,101410.25,313.0,-402.0,830.0,5.75,31.375,-54.0,-4.25,9.9375,1.75,277.25,15.3125,30.75,-0.10198974609375,-0.27435302734375,0.6319580078125,0.71759033203125,53.0,81.0,18.0,259.0,-483.0,812.0,1382,1428.8291078536574,-683.2841673685525,
99,2.718287229537964,0.025744199752807617,38.84370109002676,36.419992311418596,101410.25,312.0,-415.0,903.0,5.75,32.375,-52.75,-13.1875,4.5,-3.9375,277.4375,15.25,31.125,-0.1055908203125,-0.27587890625,0.630126953125,0.7181396484375,54.0,74.0,94.0,258.0,-489.0,809.0,1644,1471.8632862829259,-447.7950742755592,
100,2.7461531162261963,0.027865886688232422,35.88617190574787,36.41457550532414,101410.25,308.0,-347.0,848.0,5.75,32.375,-52.75,-14.375,1.125,-3.875,277.5625,15.1875,31.4375,-0.10784912109375,-0.2772216796875,0.62872314453125,0.718505859375,50.0,146.0,40.0,257.0,-493.0,807.0,2193,1616.0906290263406,114.56115467193666,
101,2.7738089561462402,0.027655839920043945,36.158728242971804,36.412024619144354,101410.25,304.0,-316.0,805.0,7.1875,33.1875,-52.75,-3.5625,-1.1875,-5.1875,277.6875,15.25,31.5625,-0.10833740234375,-0.278076171875,0.62786865234375,0.71881103515625,46.0,178.0,0.0,258.0,-495.0,805.0,2221,1737.0725032210726,540.5601103380147,
102,2.800227165222168,0.026418209075927734,37.8526794577911,36.42561620242956,101410.25,312.0,-332.0,844.0,7.1875,33.1875,-52.75,-10.0625,-1.0,-5.375,277.875,15.375,31.75,-0.1092529296875,-0.27972412109375,0.62652587890625,0.71923828125,51.0,165.0,40.0,260.0,-497.0,803.0,2216,1832.858002576858,849.0778796861139,
103,2.826104164123535,0.025876998901367188,38.6443576324906,36.44593193257035,101410.25,291.0,-343.0,843.0,6.75,33.5,-52.0,-8.625,0.0,-5.3125,278.125,15.5625,31.625,-0.10784912109375,-0.280029296875,0.6248779296875,0.72076416015625,27.0,151.0,39.0,263.0,-495.0,804.0,2230,1912.2864020614866,1071.1160393035339,
104,2.8528940677642822,0.02678990364074707,37.327495216482,36.45421019137291,101410.25,298.0,-368.0,859.0,6.75,33.5,-52.0,-9.0625,0.375,-5.8125,278.25,15.625,31.75,-0.1087646484375,-0.2811279296875,0.623779296875,0.72113037109375,33.0,129.0,57.0,264.0,-497.0,802.0,2188,1967.4291216491893,1169.8383955365584,
105,2.8804008960723877,0.02750682830810547,36.35460943729848,36.4532590387589,101410.25,286.0,-385.0,878.0,6.0625,33.5,-51.5625,-4.375,0.125,-3.75,278.4375,15.6875,31.9375,-0.109375,-0.2822265625,0.622314453125,0.72186279296875,20.0,113.0,77.0,266.0,-499.0,800.0,2174,2008.7432973193515,1203.0506280541715,
106,2.907067060470581,0.02666616439819336,37.50070632834433,36.46286714240478,101410.25,291.0,-398.0,908.0,6.0625,33.5,-51.5625,-8.1875,2.875,-1.5625,278.5625,15.6875,32.125,-0.11126708984375,-0.28314208984375,0.62115478515625,0.72216796875,26.0,103.0,109.0,265.0,-502.0,799.0,2122,2031.3946378554815,1167.6896921876275,
107,2.933237075805664,0.026170015335083008,38.2116703867353,36.478469770674984,101410.25,302.0,-384.0,916.0,5.75,34.6875,-52.375,-5.8125,5.4375,3.0,278.5625,15.5625,32.25,-0.112548828125,-0.283203125,0.6209716796875,0.72210693359375,39.0,121.0,115.0,264.0,-504.0,798.0,2122,2049.5157102843855,1120.1643676396084,
108,2.9609479904174805,0.027710914611816406,36.086863750559246,36.47480480897352,101410.25,309.0,-370.0,908.0,5.75,34.6875,-52.375,-3.0,3.25,3.5625,278.5625,15.4375,32.375,-0.1143798828125,-0.282958984375,0.6212158203125,0.72174072265625,48.0,136.0,110.0,261.0,-506.0,797.0,2141,2067.8125682275086,1074.1755528413296,
109,2.9876649379730225,0.026716947555541992,37.42942557045842,36.483341426482355,101410.25,299.0,-366.0,891.0,6.0625,34.25,-50.75,-1.125,2.5,6.0,278.5625,15.4375,31.5625,-0.10919189453125,-0.278564453125,0.6221923828125,0.72344970703125,37.0,128.0,86.0,261.0,-494.0,805.0,2155,2085.2500545820067,1032.0255073213536,
110,3.0171542167663574,0.02948927879333496,33.9106292496382,36.458196067250675,101410.25,307.0,-362.0,904.0,6.0625,34.25,-50.75,-1.8125,1.1875,8.6875,278.5,15.5,30.8125,-0.10467529296875,-0.2747802734375,0.62371826171875,0.7242431640625,44.0,114.0,106.0,262.0,-484.0,811.0,2178,2103.8000436656052,991.727136829093,
111,3.0433781147003174,0.02622389793395996,38.13315634915584,36.4726287094728,101410.25,293.0,-384.0,920.0,6.375,34.25,-51.5625,-2.3125,0.375,11.75,278.375,15.4375,30.4375,-0.10211181640625,-0.27239990234375,0.6251220703125,0.72430419921875,31.0,94.0,105.0,261.0,-479.0,814.0,2202,2123.440034932484,967.4479089137787,
112,3.0714950561523438,0.028116941452026367,35.56574607185558,36.46432696535159,101410.25,299.0,-397.0,954.0,6.375,34.25,-51.5625,-3.0625,-2.5625,15.1875,278.125,15.375,30.3125,-0.101318359375,-0.27154541015625,0.6268310546875,0.72320556640625,38.0,80.0,138.0,259.0,-478.0,815.0,2268,2152.3520279459876,973.5307782173535,
113,3.0953962802886963,0.02390122413635254,41.838861235523545,36.50582664312723,101410.25,328.0,-472.0,1053.0,7.1875,34.6875,-51.5625,-5.125,-4.6875,21.4375,277.625,15.125,30.6875,-0.1038818359375,-0.27276611328125,0.6297607421875,0.71990966796875,72.0,10.0,239.0,256.0,-483.0,813.0,1930,2107.88162235679,690.1185875422295,
114,3.1228830814361572,0.027486801147460938,36.38109777253487,36.50472881218898,101410.25,343.0,-469.0,1052.0,7.1875,34.6875,-51.5625,-2.875,-3.375,23.4375,277.375,15.0625,30.75,-0.1043701171875,-0.27288818359375,0.631103515625,0.71856689453125,95.0,17.0,239.0,254.0,-485.0,813.0,1513,1988.905297885432,188.25779946707536,
115,3.153419017791748,0.03053593635559082,32.74829985087096,36.46835366665966,101410.25,353.0,-461.0,989.0,6.75,35.0,-51.1875,11.125,-1.125,28.9375,276.6875,14.6875,30.75,-0.10540771484375,-0.2711181640625,0.6357421875,0.71502685546875,92.0,33.0,131.0,248.0,-485.0,814.0,1626,1916.3242383083457,-68.25861073206738,
116,3.1803243160247803,0.026905298233032227,37.16740068587227,36.47426755048467,101415.5,298.0,-425.0,851.0,7.875,34.25,-50.75,12.0,1.0,31.375,276.375,14.375,30.6875,-0.106201171875,-0.26885986328125,0.63800048828125,0.71368408203125,55.0,59.0,35.0,241.0,-484.0,817.0,2071,1947.2593906466766,53.54517056486371,
117,3.208045244216919,0.027720928192138672,36.07382815859637,36.47080732758169,101415.5,275.0,-461.0,865.0,7.875,34.25,-50.75,1.5,-15.125,27.3125,275.0625,14.0,30.75,-0.10565185546875,-0.2684326171875,0.646240234375,0.70648193359375,33.0,-28.0,114.0,238.0,-486.0,817.0,2380,2033.8075125173414,360.4028610895391,
118,3.2333431243896484,0.025297880172729492,39.529003741506216,36.49473484886471,101415.5,281.0,-545.0,970.0,9.375,33.1875,-52.0,-0.75,-17.125,24.875,274.875,14.0625,30.8125,-0.10552978515625,-0.26922607421875,0.6473388671875,0.7052001953125,38.0,-57.0,153.0,238.0,-487.0,816.0,2394,2105.846010013873,609.1235786878744,
119,3.2618720531463623,0.028528928756713867,35.05213983068553,36.48211764934619,101415.5,287.0,-606.0,1047.0,9.375,33.1875,-52.0,4.75,-19.75,20.4375,273.8125,14.25,31.0625,-0.103271484375,-0.2728271484375,0.6533203125,0.69866943359375,33.0,-108.0,232.0,241.0,-491.0,813.0,2329,2150.476808011099,704.6517180344706,
120,3.2849221229553223,0.02305006980895996,43.38381654754394,36.5305463899523,101415.5,234.0,-540.0,1026.0,8.25,33.1875,-52.0,10.125,-19.75,21.125,273.75,14.25,31.0625,-0.10260009765625,-0.27301025390625,0.6536865234375,0.6982421875,18.0,-93.0,212.0,242.0,-490.0,813.0,2352,2190.781446408879,809.0434500574632,
121,3.3111870288848877,0.02626490592956543,38.07361818396376,36.542786301246565,101415.5,207.0,-478.0,879.0,8.25,33.1875,-52.0,28.5625,-22.0625,22.875,272.5,14.5625,30.4375,-0.09429931640625,-0.27215576171875,0.6619873046875,0.69195556640625,-50.0,13.0,35.0,246.0,-481.0,817.0,2347,2222.0251571271033,847.0952163053048,
122,3.3351430892944336,0.0239560604095459,41.743090596044944,36.58013966225651,101415.5,173.0,-416.0,762.0,7.5625,33.1875,-52.375,38.5625,-29.0625,21.375,271.75,14.875,29.625,-0.085693359375,-0.26995849609375,0.6676025390625,0.68853759765625,-77.0,77.0,-107.0,252.0,-469.0,823.0,2371,2251.8201257016826,886.759101926272,
123,3.3638741970062256,0.028731107711791992,34.80548017957463,36.5649821594004,101415.5,181.0,-355.0,627.0,7.5625,33.1875,-52.375,39.125,-34.875,18.0625,271.0625,15.25,29.0625,-0.07806396484375,-0.26904296875,0.672119140625,0.68536376953125,-77.0,104.0,-199.0,258.0,-459.0,826.0,1874,2176.256100561346,535.0789738025587,
124,3.392505168914795,0.028630971908569336,34.927211105282005,36.551160227020524,101415.5,210.0,-395.0,669.0,8.25,32.0,-53.1875,22.1875,-35.8125,12.9375,270.5,16.0,28.4375,-0.06829833984375,-0.269775390625,0.6761474609375,0.68212890625,-59.0,53.0,-158.0,270.0,-449.0,828.0,1715,2084.004880449077,159.36329246419706,
125,3.419544219970703,0.027039051055908203,36.98354642447756,36.55457919508084,101415.5,235.0,-428.0,754.0,8.25,32.0,-53.1875,9.0625,-34.8125,10.625,270.0625,16.5,28.3125,-0.0633544921875,-0.2723388671875,0.67840576171875,0.67938232421875,-43.0,17.0,-72.0,278.0,-446.0,827.0,2511,2169.403904359262,459.2628397565168,
126,3.4484341144561768,0.028889894485473633,34.61417972650673,36.53832313971015,101415.5,242.0,-504.0,897.0,6.375,29.375,-55.1875,5.875,-28.125,2.5625,269.5,17.375,28.4375,-0.05633544921875,-0.27825927734375,0.68060302734375,0.6754150390625,-63.0,-62.0,87.0,293.0,-446.0,822.0,2460,2227.52312348741,614.5114654274593,
127,3.477720260620117,0.02928614616394043,34.145837912647046,36.5181758400989,101415.5,222.0,-470.0,869.0,5.75,29.0,-53.5625,18.125,-24.125,1.4375,269.625,17.8125,28.25,-0.05242919921875,-0.279296875,0.68011474609375,0.67584228515625,-78.0,-28.0,46.0,300.0,-442.0,822.0,2558,2293.6184987899283,778.7485160702497,
128,3.506092071533203,0.028371810913085938,35.24625210084034,36.50788324678137,101415.5,218.0,-391.0,749.0,5.75,29.0,-53.5625,30.625,-18.625,-0.5,269.25,18.4375,27.25,-0.04144287109375,-0.277099609375,0.68316650390625,0.67437744140625,-91.0,39.0,-75.0,308.0,-430.0,825.0,2526,2340.094799031943,864.6852039676638,
129,3.5348241329193115,0.0287320613861084,34.804324916397675,36.49403623751503,101414.5,219.0,-346.0,716.0,3.0625,28.25,-55.5625,29.3125,-8.5,-1.75,269.1875,18.5625,26.9375,-0.039306640625,-0.27587890625,0.68365478515625,0.67449951171875,-92.0,60.0,-111.0,312.0,-421.0,828.0,2577,2387.4758392255544,943.1231953484331,
130,3.5606191158294678,0.02579498291015625,38.767228630582665,36.51050442942862,101414.5,241.0,-306.0,682.0,3.0625,28.25,-55.5625,24.875,-5.5625,-5.125,269.0625,18.8125,25.9375,-0.03118896484375,-0.27117919921875,0.68548583984375,0.67498779296875,-75.0,99.0,-151.0,317.0,-405.0,834.0,2614,2432.780671380444,1024.4451544354672,
131,3.586759090423584,0.02613997459411621,38.255584235536624,36.52322241261243,101414.5,261.0,-305.0,687.0,4.25,26.0625,-55.5625,19.6875,-5.75,-8.3125,269.1875,19.0625,25.3125,-0.0264892578125,-0.26904296875,0.68524169921875,0.67626953125,-50.0,86.0,-140.0,321.0,-396.0,837.0,2670,2480.2245371043555,1103.4999191579793,
132,3.6156811714172363,0.028922080993652344,34.575658654004684,36.50764371689887,101414.5,265.0,-365.0,819.0,4.25,26.0625,-55.5625,3.875,2.9375,-9.9375,269.375,19.125,25.125,-0.025390625,-0.26812744140625,0.6844482421875,0.677490234375,-57.0,27.0,-19.0,322.0,-393.0,838.0,2750,2534.1796296834846,1179.7032136083003,
133,3.6446681022644043,0.02898693084716797,34.49830564237539,36.49166296304679,101414.5,260.0,-419.0,901.0,3.5,25.6875,-57.5625,-0.3125,7.9375,-13.25,269.9375,19.125,24.875,-0.0255126953125,-0.2664794921875,0.681396484375,0.68121337890625,-63.0,-14.0,26.0,321.0,-390.0,840.0,2788,2584.943703746788,1236.860346516272,
134,3.672842025756836,0.02817392349243164,35.4938139967843,36.48400858525561,101414.5,280.0,-390.0,827.0,2.375,23.875,-56.375,9.375,0.75,-16.5625,270.1875,19.25,24.625,-0.02386474609375,-0.2652587890625,0.68011474609375,0.68304443359375,-43.0,-4.0,-13.0,323.0,-385.0,841.0,2792,2626.3549629974304,1260.1586651861371,
135,3.7005650997161865,0.027723073959350586,36.07103604262163,36.480914769031834,101414.5,305.0,-405.0,807.0,2.375,23.875,-56.375,6.25,1.625,-17.6875,270.5,19.375,24.3125,-0.0224609375,-0.26416015625,0.67730712890625,0.686279296875,-6.0,-36.0,-18.0,325.0,-381.0,842.0,2811,2663.2839703979444,1267.3495543637414,
136,3.7273659706115723,0.026800870895385742,37.31222033430892,36.4868921035102,101414.5,348.0,-510.0,951.0,3.0625,24.5625,-57.1875,-10.8125,9.1875,-20.0,271.1875,19.375,24.3125,-0.0235595703125,-0.26434326171875,0.674560546875,0.68890380859375,22.0,-128.0,109.0,325.0,-381.0,842.0,2788,2688.2271763183553,1233.6832384420086,
137,3.7545979022979736,0.027231931686401367,36.72159623180031,36.488594402119645,101414.5,351.0,-607.0,1115.0,3.0625,24.5625,-57.1875,-5.0,28.0,-14.4375,271.75,19.0,24.375,-0.02752685546875,-0.26226806640625,0.67132568359375,0.69268798828125,31.0,-224.0,271.0,320.0,-382.0,844.0,2113,2573.181741054684,687.8497123913824,
138,3.7830400466918945,0.0284421443939209,35.15909300473616,36.47859877155545,101414.5,283.0,-649.0,1064.0,2.75,23.5,-56.375,27.1875,40.0,-4.0,272.0625,18.0625,23.6875,-0.03070068359375,-0.2529296875,0.67095947265625,0.69635009765625,-21.0,-274.0,211.0,305.0,-374.0,853.0,2164,2491.3453928437475,331.3355633606146,
139,3.8121001720428467,0.02906012535095215,34.41141385053369,36.462840357500895,101414.5,324.0,-469.0,659.0,2.75,23.5,-56.375,27.6875,5.9375,-12.8125,272.25,17.625,22.5625,-0.02783203125,-0.2437744140625,0.67181396484375,0.69891357421875,26.0,-109.0,-203.0,297.0,-359.0,862.0,2540,2501.0763142749984,331.6874834763332,
140,3.8361730575561523,0.024072885513305664,41.5405124345096,36.49470394049102,101414.5,393.0,-449.0,690.0,3.0625,24.25,-57.25,-10.5,2.5625,-21.9375,272.625,17.75,22.4375,-0.0269775390625,-0.24371337890625,0.6695556640625,0.701171875,93.0,-92.0,-172.0,299.0,-357.0,862.0,2521,2505.061051419999,315.0715374207145,
141,3.864002227783203,0.02782917022705078,35.93351838525068,36.49066219117901,101414.5,307.0,-596.0,1069.0,3.0625,24.25,-57.25,-49.9375,32.375,-27.3125,273.75,17.5,23.4375,-0.0369873046875,-0.24737548828125,0.6617431640625,0.706787109375,12.0,-223.0,211.0,294.0,-372.0,857.0,2554,2514.8488411359995,318.73535584973047,
142,3.8916540145874023,0.02765178680419922,36.16402828073806,36.4883413242107,101414.5,210.0,-529.0,976.0,3.875,22.75,-57.25,-16.75,25.9375,-21.875,274.375,17.125,23.75,-0.04254150390625,-0.24688720703125,0.65777587890625,0.7103271484375,-73.0,-212.0,251.0,289.0,-377.0,857.0,2582,2528.2790729087997,335.43094842959874,
143,3.918705940246582,0.027051925659179688,36.96594514559684,36.49163835727919,101415.75,333.0,-300.0,574.0,5.0,25.0625,-56.0,20.375,-26.5,-26.625,274.9375,17.6875,23.125,-0.03643798828125,-0.24658203125,0.65435791015625,0.71392822265625,-11.0,27.0,-216.0,298.0,-367.0,858.0,2623,2547.2232583270397,371.9168254865067,
144,3.9467992782592773,0.028093338012695312,35.59562767329758,36.485260548519896,101415.75,391.0,-299.0,573.0,5.0,25.0625,-56.0,-13.4375,-29.5,-30.25,275.625,19.0,23.0,-0.02972412109375,-0.25555419921875,0.64697265625,0.7177734375,55.0,20.0,-236.0,322.0,-366.0,850.0,2886,2614.9786066616316,575.9045581571277,
145,3.9711849689483643,0.024385690689086914,41.00765538076475,36.51303103073499,101415.75,380.0,-383.0,725.0,4.25,24.6875,-55.6875,-58.1875,20.125,-15.1875,276.5,18.9375,24.1875,-0.0377197265625,-0.2593994140625,0.64251708984375,0.72003173828125,61.0,-3.0,-119.0,318.0,-380.0,845.0,2942,2680.3828853293053,786.5217143445616,
146,3.9998762607574463,0.02869129180908203,34.85378095396377,36.50112915551851,101415.75,313.0,-399.0,838.0,4.25,24.6875,-55.6875,-49.5,11.75,-18.0,277.375,18.8125,25.125,-0.04559326171875,-0.26373291015625,0.63775634765625,0.72222900390625,-2.0,1.0,1.0,316.0,-400.0,837.0,2708,2685.9063082634443,727.1207602163636,
147,4.024709939956665,0.02483367919921875,40.2678955453149,36.52437124489592,101415.75,286.0,-323.0,790.0,3.875,25.75,-54.875,-35.6875,12.625,-15.5,277.875,18.6875,26.125,-0.05401611328125,-0.26861572265625,0.63165283203125,0.7252197265625,-28.0,85.0,-42.0,315.0,-409.0,833.0,2595,2667.7250466107557,581.1965696834769,
148,4.05282998085022,0.028120040893554688,35.56182595129892,36.5176927478591,101415.75,206.0,-230.0,701.0,3.875,25.75,-54.875,-27.375,26.625,-6.5625,278.4375,18.25,26.8125,-0.0623779296875,-0.26934814453125,0.6275634765625,0.72784423828125,-100.0,189.0,-128.0,307.0,-420.0,830.0,2600,2654.1800372886046,474.90838631282315,
149,4.081271171569824,0.028441190719604492,35.16027194004577,36.50823327740031,101415.75,157.0,-219.0,711.0,3.875,28.75,-54.0625,-24.1875,18.875,-2.5625,278.8125,17.6875,27.4375,-0.0706787109375,-0.2689208984375,0.6246337890625,0.729736328125,-140.0,210.0,-117.0,298.0,-430.0,829.0,2614,2646.144029830884,399.1627269289715,
150,4.110377073287964,0.02910590171813965,34.35729322815554,36.49300230258737,101415.75,226.0,-196.0,773.0,3.875,28.75,-54.0625,-14.3125,5.5,-3.25,279.0625,17.5,27.875,-0.0753173828125,-0.270263671875,0.622802734375,0.7303466796875,-68.0,241.0,-52.0,295.0,-438.0,826.0,2582,2633.315223864707,315.1701494013696,
151,4.135994911193848,0.02561783790588379,39.035300468129066,36.50874898112825,101415.75,298.0,-260.0,877.0,4.5625,30.25,-54.0625,-12.5625,4.625,-4.75,279.25,17.4375,28.125,-0.0771484375,-0.27117919921875,0.6214599609375,0.73095703125,3.0,180.0,52.0,294.0,-441.0,824.0,2591,2624.8521790917657,250.61738490253285,
152,4.161267042160034,0.025272130966186523,39.56927895546185,36.52733613584667,101415.75,331.0,-178.0,866.0,4.5625,30.25,-54.0625,-4.875,24.5,18.875,279.0,16.8125,28.4375,-0.0828857421875,-0.26910400390625,0.62310791015625,0.72967529296875,47.0,269.0,41.0,283.0,-447.0,825.0,2652,2630.2817432734128,247.04004038329714,
153,4.188452243804932,0.02718520164489746,36.78471887250818,36.529006681716304,101415.75,367.0,-265.0,928.0,5.75,32.0,-53.6875,-11.9375,14.8125,-1.4375,279.125,16.3125,28.5,-0.08514404296875,-0.266845703125,0.6229248046875,0.73040771484375,61.0,209.0,63.0,278.0,-448.0,826.0,2928,2689.82539461873,441.36568388298167,
154,4.218235015869141,0.029782772064208984,33.5764581565507,36.5081602662362,101415.75,307.0,-402.0,1110.0,5.75,32.0,-53.6875,-20.8125,28.6875,4.0,279.25,15.875,28.8125,-0.09173583984375,-0.265625,0.6214599609375,0.7313232421875,66.0,86.0,244.0,269.0,-455.0,825.0,2872,2726.2603156949845,519.5646757900917,
155,4.250614166259766,0.032379150390625,30.88407163053723,36.46531864273836,101415.75,261.0,-483.0,1243.0,6.75,31.25,-53.6875,6.6875,-9.1875,0.25,279.3125,15.4375,29.25,-0.09710693359375,-0.26507568359375,0.6209716796875,0.73126220703125,0.0,-21.0,418.0,261.0,-462.0,824.0,3205,2822.008252555988,763.316822260221,
156,4.27798318862915,0.027369022369384766,36.5376587626531,36.46578144922283,101415.75,360.0,-547.0,1162.0,8.25,31.6875,-52.875,58.3125,-43.625,-2.5,278.875,16.375,28.125,-0.08343505859375,-0.26483154296875,0.62432861328125,0.73016357421875,83.0,-103.0,333.0,270.0,-452.0,827.0,3275,2912.60660204479,1018.0102978423437,
157,4.304178953170776,0.026195764541625977,38.174110108943964,36.47617854837151,101415.5,370.0,-536.0,1083.0,8.25,31.6875,-52.875,72.25,-41.0625,6.875,278.375,17.0625,26.9375,-0.07061767578125,-0.2626953125,0.6285400390625,0.7286376953125,82.0,-111.0,248.0,288.0,-424.0,835.0,3196,2969.2852816358327,1132.5750836119105,
158,4.33249306678772,0.02831411361694336,35.31807541386686,36.46861000452735,101415.5,353.0,-626.0,1068.0,7.75,30.875,-53.1875,75.5,9.25,33.625,277.375,17.0625,25.0,-0.05670166015625,-0.25250244140625,0.63739013671875,0.72576904296875,65.0,-230.0,219.0,288.0,-396.0,849.0,3257,3026.8282253086663,1222.5481776680226,
159,4.362466096878052,0.02997303009033203,33.36332686372459,36.447274653615416,101415.5,163.0,-453.0,790.0,7.75,30.875,-53.1875,96.0,40.0625,61.4375,275.625,15.5625,22.75,-0.04937744140625,-0.23138427734375,0.65216064453125,0.72021484375,-100.0,-87.0,-80.0,263.0,-365.0,870.0,3716,3164.6625802469334,1560.154623586824,
160,4.389754295349121,0.027288198471069336,36.645878292778825,36.44850924105652,101415.5,164.0,-293.0,489.0,6.0,27.5625,-54.5,46.9375,20.0,54.6875,273.75,14.125,20.9375,-0.04412841796875,-0.212890625,0.6669921875,0.712646484375,-75.0,46.0,-398.0,239.0,-340.0,887.0,3566,3244.930064197547,1698.2864060003178,
161,4.4150049686431885,0.025250673294067383,39.60290438017543,36.466550127004325,101415.5,295.0,-359.0,702.0,6.0,27.5625,-54.5,-45.4375,-0.4375,28.5625,273.125,13.8125,21.5,-0.0484619140625,-0.21453857421875,0.6705322265625,0.70849609375,61.0,-9.0,-183.0,234.0,-349.0,885.0,3383,3272.5440513580374,1637.8171747075157,
162,4.442551136016846,0.027546167373657227,36.30269091286774,36.46553411318701,101415.5,265.0,-677.0,1228.0,8.5625,23.0625,-55.6875,-33.25,-4.625,0.1875,273.125,13.8125,23.25,-0.0587158203125,-0.22467041015625,0.66845703125,0.70654296875,31.0,-301.0,353.0,234.0,-375.0,874.0,3397,3297.4352410864303,1564.3971739531037,
163,4.4678521156311035,0.025300979614257812,39.52416132679985,36.48285479945335,101415.5,164.0,-475.0,862.0,9.375,23.0625,-55.25,1.6875,-3.8125,5.1875,273.0625,13.9375,23.375,-0.05853271484375,-0.22637939453125,0.668701171875,0.705810546875,-71.0,-97.0,-10.0,236.0,-377.0,873.0,3406,3319.1481928691446,1493.776077471896,
164,4.493833065032959,0.02598094940185547,38.489740483794,36.49445754362866,101415.5,150.0,-375.0,682.0,9.375,23.0625,-55.25,-4.9375,-6.875,6.3125,272.9375,14.0,23.4375,-0.05841064453125,-0.227294921875,0.66943359375,0.704833984375,-86.0,3.0,-190.0,237.0,-379.0,872.0,3345,3324.318554295316,1364.2990566747824,
165,4.5237860679626465,0.0299530029296875,33.38563423331635,36.473873326708876,101415.5,163.0,-310.0,698.0,9.75,22.375,-53.25,-15.75,-21.0625,-1.9375,272.75,14.375,23.875,-0.05816650390625,-0.23223876953125,0.669677734375,0.7030029296875,-80.0,75.0,-170.0,243.0,-385.0,868.0,3350,3329.454843436253,1245.0169780648926,
166,4.550590991973877,0.02680492401123047,37.30657843241897,36.47877831534039,101415.5,170.0,-296.0,740.0,9.75,22.375,-53.25,-7.4375,-32.0,-12.9375,272.9375,15.25,24.3125,-0.05499267578125,-0.23974609375,0.66729736328125,0.7030029296875,-88.0,93.0,-121.0,258.0,-389.0,862.0,3364,3336.363874749003,1146.2905121145177,
167,4.578390121459961,0.027799129486083984,35.97234943995609,36.47570337381973,101415.5,259.0,-297.0,666.0,9.375,22.375,-54.5,-9.6875,-3.5,-1.5625,272.8125,15.75,24.5,-0.052490234375,-0.243896484375,0.66754150390625,0.7015380859375,-3.0,133.0,-197.0,266.0,-391.0,858.0,3570,3383.0910997992028,1199.750267689591,
168,4.606706142425537,0.028316020965576172,35.31569641143088,36.46857316397961,101415.5,229.0,-281.0,640.0,9.375,22.375,-54.5,-3.5625,11.9375,-4.6875,273.0,15.5625,24.625,-0.05499267578125,-0.2435302734375,0.666259765625,0.70269775390625,-34.0,112.0,-218.0,263.0,-394.0,858.0,3678,3442.0728798393625,1288.0735046910395,
169,4.634376049041748,0.027669906616210938,36.14034603984283,36.46661345812544,101415.5,214.0,-263.0,644.0,8.25,23.0625,-55.6875,0.125,14.6875,-3.375,272.875,15.3125,24.5625,-0.05596923828125,-0.24163818359375,0.66748046875,0.70208740234375,-61.0,141.0,-195.0,259.0,-393.0,860.0,3725,3498.6583038714903,1363.7678347551691,
170,4.661848068237305,0.02747201919555664,36.40067345911513,36.466224877268225,101415.5,104.0,-285.0,698.0,8.25,23.0625,-55.6875,16.1875,22.625,-0.6875,273.0,14.75,24.1875,-0.05792236328125,-0.23583984375,0.6676025390625,0.70379638671875,-145.0,103.0,-166.0,249.0,-388.0,864.0,3720,3542.9266430971925,1388.5307873528645,
171,4.688981056213379,0.02713298797607422,36.855505957611335,36.46847746876851,101418.25,92.0,-272.0,567.0,7.5625,22.6875,-54.875,31.1875,5.25,-2.1875,272.6875,14.4375,23.3125,-0.05413818359375,-0.22900390625,0.6708984375,0.7032470703125,-151.0,103.0,-304.0,244.0,-376.0,872.0,3809,3596.1413144777543,1445.8030724274408,
172,4.717261075973511,0.028280019760131836,35.360654217426124,36.4618360590746,101418.25,140.0,-284.0,561.0,7.5625,22.6875,-54.875,25.1875,-4.3125,-1.5,272.625,14.5,22.75,-0.050537109375,-0.22625732421875,0.6717529296875,0.70361328125,-91.0,65.0,-294.0,246.0,-365.0,876.0,3781,3633.1130515822033,1431.957246341497,
173,4.744643211364746,0.02738213539123535,36.52016125521337,36.46217266360865,101418.25,166.0,-331.0,633.0,9.0625,21.5625,-54.5,3.5625,3.1875,4.0625,272.1875,14.4375,22.4375,-0.04791259765625,-0.2244873046875,0.6749267578125,0.7012939453125,-79.0,31.0,-244.0,245.0,-363.0,877.0,3860,3678.490441265763,1454.4804805657727,
174,4.77067494392395,0.0260317325592041,38.41465402756789,36.472826601110334,101418.25,192.0,-405.0,783.0,9.0625,21.5625,-54.5,-1.375,0.6875,2.4375,271.75,14.4375,22.5,-0.04742431640625,-0.22467041015625,0.67730712890625,0.69891357421875,-50.0,-56.0,-88.0,244.0,-363.0,877.0,3758,3694.3923530126103,1370.1190763224017,
175,4.798651933670044,0.02797698974609375,35.74365966730297,36.46857542888274,101418.25,246.0,-417.0,658.0,8.6875,19.75,-53.6875,8.1875,-7.25,8.0625,271.5625,14.6875,22.3125,-0.0445556640625,-0.22509765625,0.67840576171875,0.69793701171875,-2.0,-57.0,-219.0,248.0,-360.0,877.0,3824,3720.313882410089,1325.7602011741076,
176,4.824476003646851,0.02582406997680664,38.72356297431541,36.4806457461827,101418.25,261.0,-418.0,637.0,8.6875,19.75,-53.6875,-3.4375,-1.4375,11.375,271.5,14.625,22.375,-0.04486083984375,-0.225341796875,0.67901611328125,0.69720458984375,26.0,-87.0,-165.0,247.0,-365.0,875.0,3795,3735.2511059280714,1251.0264326126994,
177,4.850279092788696,0.025803089141845703,38.75504961839115,36.492745389262296,101418.25,292.0,-502.0,848.0,10.5625,20.1875,-54.375,-48.5625,-1.25,-0.375,271.125,14.4375,23.9375,-0.054443359375,-0.233642578125,0.6793212890625,0.6934814453125,32.0,-148.0,54.0,245.0,-385.0,867.0,3856,3759.4008847424575,1219.5163769739,
178,4.881278991699219,0.03099989891052246,32.2581697084362,36.465852556818625,101418.25,223.0,-543.0,968.0,9.75,19.75,-53.375,-31.6875,-10.4375,-6.3125,271.125,14.625,24.625,-0.0572509765625,-0.239013671875,0.67864990234375,0.692138671875,-25.0,-147.0,106.0,248.0,-395.0,862.0,3931,3793.7207077939665,1208.2742069124179,
179,4.905174016952515,0.0238950252532959,41.849715135248395,36.492079461680156,101418.25,395.0,-473.0,786.0,9.75,19.75,-53.375,-8.375,-26.875,1.375,271.0625,15.25,25.0625,-0.05517578125,-0.24517822265625,0.67779541015625,0.69097900390625,136.0,25.0,-316.0,258.0,-400.0,856.0,3921,3819.1765662351736,1193.9788286499486,
180,4.930824041366577,0.0256500244140625,38.98631766805473,36.50505442699047,101418.25,458.0,-354.0,494.0,8.6875,20.5,-53.75,-38.875,-12.0625,-6.5,270.6875,15.625,25.625,-0.05517578125,-0.25067138671875,0.6793212890625,0.6875,193.0,53.0,-356.0,264.0,-408.0,851.0,4025,3860.341252988139,1235.0669012306605,
181,4.957028865814209,0.026204824447631836,38.16091201062678,36.51380794819522,101418.25,220.0,-672.0,1213.0,8.6875,20.5,-53.75,-58.0,56.75,-5.4375,271.8125,14.4375,28.25,-0.080810546875,-0.2589111328125,0.66949462890625,0.6915283203125,-74.0,-238.0,406.0,245.0,-449.0,836.0,4245,3937.2730023905115,1405.1387830843476,
182,4.986488103866577,0.029459238052368164,33.94520924887303,36.4986331480216,101418.25,231.0,-642.0,1080.0,8.6875,21.25,-52.5625,-6.4375,17.5,2.75,271.75,13.5625,28.6875,-0.0892333984375,-0.25665283203125,0.66998291015625,0.69085693359375,79.0,-165.0,183.0,230.0,-458.0,835.0,4620,4073.818401912409,1728.1311206500914,
183,5.01145601272583,0.02496790885925293,40.05141181975306,36.51633368332463,101418.25,422.0,-583.0,973.0,8.6875,21.25,-52.5625,-12.4375,12.875,-2.75,271.8125,13.375,28.8125,-0.09136962890625,-0.25616455078125,0.66943359375,0.6912841796875,357.0,-130.0,153.0,227.0,-460.0,835.0,4095,4078.0547215299275,1572.2850667452149,
184,5.040879249572754,0.029423236846923828,33.98674337573941,36.501568653047016,101418.25,608.0,-765.0,1242.0,11.25,24.5625,-50.5,-40.0,30.5625,-31.75,272.5625,13.125,29.6875,-0.09979248046875,-0.259033203125,0.6636962890625,0.694580078125,367.0,-365.0,607.0,223.0,-473.0,829.0,4254,4113.243777223942,1534.6527006214,
185,5.06941294670105,0.0285336971282959,35.046282138052625,36.493377427536224,101416.25,491.0,-850.0,1426.0,11.25,24.5625,-50.5,-10.0625,22.5625,-42.0,273.5,13.0625,29.8125,-0.10321044921875,-0.25872802734375,0.65777587890625,0.69976806640625,269.0,-374.0,597.0,221.0,-475.0,828.0,4231,4136.795021779154,1463.7257866976843,
186,5.0980119705200195,0.028599023818969727,34.966228439472125,36.48481036834976,101416.25,418.0,-598.0,1049.0,11.6875,25.375,-49.6875,9.5625,16.5,-42.9375,275.125,13.3125,29.0,-0.10009765625,-0.25390625,0.6490478515625,0.7100830078125,176.0,-112.0,183.0,226.0,-462.0,834.0,4404,4190.236017423324,1504.2162142006025,
187,5.122244119644165,0.024232149124145508,41.2674911695544,36.507436122156285,101416.25,369.0,-536.0,998.0,11.6875,25.375,-49.6875,-0.0625,18.0,-43.0,275.5625,13.375,28.875,-0.10015869140625,-0.253173828125,0.64630126953125,0.71282958984375,142.0,-75.0,163.0,227.0,-460.0,835.0,4465,4245.188813938659,1580.5709972744355,
188,5.1485278606414795,0.026283740997314453,38.046334427895,36.51529234933113,101416.25,285.0,-401.0,868.0,11.6875,26.5,-50.0625,-22.0,11.4375,-35.25,276.9375,13.5,29.0625,-0.1031494140625,-0.2540283203125,0.6373291015625,0.72015380859375,-5.0,111.0,-5.0,229.0,-463.0,833.0,4451,4286.351051150928,1579.1211218248225,
189,5.176609039306641,0.028081178665161133,35.61104083001503,36.510387121163554,101416.25,179.0,-308.0,801.0,11.25,26.875,-49.25,-33.8125,0.3125,-33.8125,277.5625,13.8125,29.5,-0.10546875,-0.2576904296875,0.63262939453125,0.72271728515625,-54.0,160.0,-27.0,234.0,-469.0,828.0,4526,4334.280840920742,1591.8919796890298,
190,5.2042319774627686,0.02762293815612793,36.201797011885134,36.50874919158218,101416.25,173.0,-287.0,834.0,11.25,26.875,-49.25,-58.9375,-14.125,-35.625,278.75,14.5625,30.8125,-0.11102294921875,-0.26861572265625,0.62286376953125,0.726318359375,-73.0,198.0,19.0,246.0,-486.0,814.0,4563,4380.024672736594,1598.3036731144555,
191,5.233301162719727,0.029069185256958008,34.40068894812384,36.49703964308792,101416.25,185.0,-301.0,875.0,10.875,28.0,-48.5,-65.5625,-16.25,-32.875,279.375,15.1875,31.9375,-0.11541748046875,-0.2781982421875,0.6168212890625,0.72723388671875,-71.0,200.0,72.0,257.0,-501.0,802.0,4681,4440.219738189276,1645.548478087976,
192,5.260972023010254,0.027670860290527344,36.139100465276584,36.49515700905406,101416.25,134.0,-178.0,797.0,10.875,28.0,-48.5,-53.375,-13.0625,-28.5625,280.625,16.25,33.9375,-0.123291015625,-0.2943115234375,0.60491943359375,0.72955322265625,-140.0,347.0,16.0,274.0,-525.0,780.0,4667,4485.57579055142,1644.906323581567,
193,5.288955926895142,0.027983903884887695,35.734828282484045,36.4911341042881,101416.25,140.0,-92.0,696.0,8.6875,31.25,-47.6875,-21.9375,-34.0,-26.4375,281.1875,17.4375,34.5625,-0.1207275390625,-0.30474853515625,0.59967041015625,0.73004150390625,-172.0,449.0,-109.0,294.0,-531.0,769.0,4638,4516.0606324411365,1589.3527502381792,
194,5.317856073379517,0.028900146484375,34.601900739176344,36.48086697403082,101416.25,76.0,-88.0,757.0,8.6875,31.25,-47.6875,-12.9375,-3.5,-7.1875,281.375,17.8125,34.8125,-0.1202392578125,-0.30816650390625,0.59783935546875,0.73016357421875,-224.0,445.0,-8.0,300.0,-533.0,766.0,4742,4561.24850595291,1586.7761066012454,
195,5.345271110534668,0.027415037155151367,36.47633210710776,36.4808437154266,101416.25,6.0,-212.0,1013.0,7.1875,33.5625,-46.0625,23.6875,37.0625,12.0625,281.25,16.5,34.125,-0.12451171875,-0.2967529296875,0.60040283203125,0.73211669921875,-291.0,283.0,240.0,279.0,-528.0,777.0,4943,4637.598804762329,1706.5963815260482,
196,5.373092889785767,0.027821779251098633,35.94306427977685,36.4780591030904,101416.25,-103.0,-297.0,960.0,6.0625,32.5,-46.875,88.0625,26.5625,33.25,280.25,15.75,32.6875,-0.11846923828125,-0.28497314453125,0.60968017578125,0.7301025390625,-369.0,213.0,166.0,266.0,-510.0,793.0,5018,4713.679043809863,1809.392435624076,
197,5.401421070098877,0.02832818031311035,35.300537801829705,36.47188349942763,101416.25,-121.0,-288.0,958.0,6.0625,32.5,-46.875,124.6875,24.9375,59.1875,278.1875,14.1875,29.4375,-0.1041259765625,-0.25909423828125,0.62872314453125,0.72576904296875,-367.0,150.0,129.0,240.0,-467.0,827.0,5055,4781.943235047891,1869.4294583926014,
198,5.428972244262695,0.02755117416381836,36.29609373647865,36.47099139422663,101419.0,-113.0,-312.0,937.0,8.6875,30.25,-47.6875,141.5625,62.3125,133.8125,275.75,12.125,27.0625,-0.097900390625,-0.2352294921875,0.6483154296875,0.71746826171875,-320.0,124.0,83.0,206.0,-436.0,853.0,5144,4854.354588038313,1945.3114381259,
199,5.457153081893921,0.028180837631225586,35.48510562695116,36.46590026221813,101419.0,213.0,-512.0,1516.0,8.6875,30.25,-47.6875,128.6875,52.875,140.25,272.9375,9.875,24.875,-0.09130859375,-0.2022705078125,0.67840576171875,0.70037841796875,57.0,-118.0,632.0,156.0,-394.0,884.0,5248,4933.08367043065,2030.1512747738143,
200,5.484602928161621,0.027449846267700195,36.43007652019838,36.465720968252086,101419.0,183.0,-908.0,1895.0,12.375,23.1875,-49.25,112.875,-27.5625,84.0,268.5,8.375,21.625,-0.07635498046875,-0.18548583984375,0.7015380859375,0.68377685546875,40.0,-550.0,1023.0,144.0,-372.0,895.0,5346,5015.666936344521,2127.9876169494523,
201,5.510164022445679,0.025561094284057617,39.12195576946395,36.478042973172045,101419.0,172.0,-731.0,1512.0,12.375,23.1875,-49.25,168.125,-39.125,93.0,266.375,8.5,18.8125,-0.04766845703125,-0.161865234375,0.72479248046875,0.66796875,62.0,-394.0,459.0,144.0,-292.0,924.0,5904,5193.333549075617,2610.255391752151,
202,5.540050029754639,0.02988600730895996,33.460474986238644,36.461764589686624,101419.0,265.0,-689.0,1458.0,15.5,16.875,-51.25,101.25,-6.0625,73.8125,263.0625,8.125,15.625,-0.03594970703125,-0.1488037109375,0.73968505859375,0.6552734375,126.0,-427.0,523.0,137.0,-248.0,938.0,5323,5219.266839260495,2436.003873331132,
203,5.5667243003845215,0.026674270629882812,37.48930997497319,36.466688315420576,101419.0,145.0,-554.0,1093.0,15.5,16.875,-51.25,101.625,-37.0,41.875,261.3125,8.375,13.0,-0.01715087890625,-0.13348388671875,0.75152587890625,0.64581298828125,1.0,-335.0,148.0,143.0,-218.0,945.0,5556,5286.6134714083955,2444.881362834334,
204,5.5935821533203125,0.026857852935791016,37.23305814469596,36.47036807690524,101419.0,28.0,-291.0,595.0,15.5,9.0,-53.1875,91.8125,-54.0625,28.375,259.875,9.1875,11.25,-0.00067138671875,-0.1265869140625,0.76031494140625,0.6370849609375,-69.0,-245.0,-120.0,157.0,-189.0,949.0,5744,5378.090777126717,2540.991210823938,
205,5.620566129684448,0.026983976364135742,37.05903038549554,36.47319420677454,101419.0,-40.0,-160.0,371.0,15.5,9.0,-53.1875,57.0625,-54.5625,13.8125,259.0625,10.8125,9.3125,0.02191162109375,-0.12213134765625,0.76495361328125,0.63201904296875,-224.0,-4.0,-579.0,184.0,-156.0,950.0,5932,5488.872621701374,2697.4388641668907,
206,5.652525186538696,0.03195905685424805,31.290034764185428,36.443888917219205,101419.0,-62.0,-61.0,302.0,13.5625,3.375,-53.6875,-4.375,-49.6875,9.125,258.0,12.0625,9.0,0.0361328125,-0.13067626953125,0.77032470703125,0.623046875,-276.0,92.0,-642.0,214.0,-153.0,944.0,6147,5620.4980973611,2839.55154867473,
207,5.678940057754517,0.026414871215820312,37.85746263268106,36.45046397652045,101419.0,48.0,-177.0,472.0,10.75,1.1875,-54.1875,-28.8125,-42.5625,-1.875,257.5,13.4375,9.75,0.039794921875,-0.13873291015625,0.77166748046875,0.61944580078125,-180.0,-15.0,-467.0,228.0,-161.0,939.0,6283,5752.99847788888,3057.209214271903,
208,5.707057952880859,0.028117895126342773,35.564539788866746,36.446099149037714,101419.0,65.0,-95.0,153.0,10.75,1.1875,-54.1875,7.5625,-12.75,17.125,257.25,14.0625,9.9375,0.0430908203125,-0.1434326171875,0.77227783203125,0.61737060546875,-173.0,69.0,-783.0,239.0,-165.0,936.0,6265,5855.398782311105,3115.67026294634,
209,5.733184099197388,0.02612614631652832,38.275832489208895,36.45443725228687,101419.0,204.0,-149.0,34.0,8.5,2.5625,-54.1875,-14.375,3.0625,18.375,256.4375,14.0625,10.25,0.0423583984375,-0.14508056640625,0.7763671875,0.61187744140625,-34.0,20.0,-901.0,238.0,-170.0,935.0,6274,5939.119025848884,3124.549438412488,
210,5.7574121952056885,0.02422809600830078,41.27439480417241,36.4747203917189,101419.0,189.0,-405.0,513.0,8.5,2.5625,-54.1875,-41.4375,39.5,9.6875,256.375,13.4375,11.0,0.034423828125,-0.1466064453125,0.7769775390625,0.6112060546875,-39.0,-223.0,-678.0,234.0,-175.0,935.0,6204,5992.095220679108,3030.7505326357814,
211,5.783492088317871,0.026079893112182617,38.34371543236399,36.48314837781154,101419.0,162.0,-496.0,579.0,8.875,2.875,-53.75,-1.8125,64.0625,15.0,256.25,11.6875,11.4375,0.0198974609375,-0.1407470703125,0.7784423828125,0.61138916015625,-36.0,-305.0,-361.0,199.0,-191.0,941.0,6442,6082.076176543287,3072.6958959710223,
212,5.8075110912323,0.02401900291442871,41.6337015971333,36.50445030058747,101414.0,215.0,-337.0,329.0,8.875,2.875,-53.75,33.0625,50.0,15.625,256.0,10.5625,10.9375,0.0150146484375,-0.13177490234375,0.78094482421875,0.6103515625,91.0,-81.0,-684.0,173.0,-178.0,948.0,6292,6124.060941234629,2940.22442285244,
213,5.834501266479492,0.026990175247192383,37.05051897001016,36.50697639294937,101414.0,315.0,-263.0,327.0,11.0625,3.1875,-54.1875,14.9375,30.75,-6.875,255.75,9.5625,10.25,0.01202392578125,-0.1214599609375,0.783447265625,0.609375,151.0,-90.0,-623.0,163.0,-172.0,951.0,6349,6169.048752987704,2812.8841578448487,
214,5.860802173614502,0.026300907135009766,38.021502257193106,36.51377297180138,101414.0,653.0,-526.0,837.0,11.0625,3.1875,-54.1875,-16.75,16.5,-15.9375,256.0,9.25,10.25,0.00897216796875,-0.1199951171875,0.781982421875,0.611572265625,427.0,-314.0,-262.0,157.0,-173.0,952.0,6485,6232.2390023901635,2771.8545630891863,
215,5.900221109390259,0.039418935775756836,25.3685184625155,36.43931236031569,101414.0,322.0,-936.0,2272.0,14.0625,2.5,-53.5,-90.875,95.0,-53.0625,258.0625,7.125,12.0625,-0.0169677734375,-0.120849609375,0.77081298828125,0.62530517578125,199.0,-732.0,1320.0,122.0,-203.0,951.0,6555,6296.791201912131,2658.4284733171703,
216,5.927227973937988,0.027006864547729492,37.02762304127124,36.441992943371105,101414.0,463.0,-1012.0,2739.0,16.0,2.5,-54.0,-89.8125,51.5,-50.0,259.1875,6.0,13.75,-0.03515625,-0.125732421875,0.76373291015625,0.6322021484375,360.0,-780.0,1792.0,103.0,-231.0,947.0,6503,6338.032961529706,2545.2940588532806,
217,5.953674077987671,0.026446104049682617,37.81275299081345,36.448081832747135,101414.0,664.0,-297.0,1509.0,16.0,2.5,-54.0,9.125,-126.4375,-91.125,261.25,8.75,14.0625,-0.02069091796875,-0.1422119140625,0.7510986328125,0.64434814453125,515.0,-62.0,569.0,149.0,-235.0,940.0,6391,6348.626369223765,2330.8212438145974,
218,5.980844020843506,0.02716994285583496,36.80537737256382,36.44970496476088,101414.0,630.0,-263.0,1049.0,17.6875,6.6875,-52.25,-97.625,-126.5,-127.4375,264.4375,13.625,15.3125,0.00091552734375,-0.17742919921875,0.728759765625,0.661376953125,398.0,-10.0,130.0,231.0,-252.0,918.0,6822,6443.301095379013,2446.193021811939,
219,6.012878179550171,0.03203415870666504,31.2166774584887,36.42182553187592,101414.0,436.0,-482.0,873.0,17.6875,6.6875,-52.25,-142.5,3.375,-76.5,267.4375,15.5,18.75,-0.01080322265625,-0.208984375,0.70660400390625,0.67596435546875,174.0,-178.0,-20.0,262.0,-303.0,894.0,7197,6594.04087630321,2672.1332317581373,
220,6.0376362800598145,0.024758100509643555,40.39082075826006,36.4381009049158,101414.0,295.0,-481.0,1076.0,11.75,10.0,-54.0,-149.1875,94.6875,-65.625,269.3125,14.625,21.0625,-0.0330810546875,-0.2181396484375,0.69354248046875,0.68585205078125,47.0,-139.0,191.0,248.0,-341.0,885.0,,6594.04087630321,2672.1332317581373,
221,6.0591511726379395,0.021514892578125,46.47943262411348,36.473755762687865,101414.0,-143.0,-384.0,1215.0,11.75,10.0,-54.0,-136.8125,7.125,-118.1875,273.0,14.1875,24.8125,-0.0654296875,-0.23626708984375,0.66705322265625,0.70355224609375,-383.0,14.0,352.0,240.0,-384.0,871.0,6621,6599.432701042569,2429.9808040517282,
222,6.096243143081665,0.037091970443725586,26.960012855535915,36.415870363034514,101414.0,-398.0,4.0,453.0,9.5,18.1875,-51.5,-72.875,-137.6875,-116.0,276.375,18.0,26.875,-0.0596923828125,-0.26922607421875,0.6407470703125,0.716552734375,-702.0,426.0,-377.0,303.0,-422.0,831.0,6808,6641.146160834056,2299.4422648692935,
223,6.122338056564331,0.026094913482666016,38.32164458656921,36.423993242402034,101414.0,-236.0,138.0,268.0,7.375,24.5,-50.0,-48.5625,-111.5625,-44.8125,277.9375,22.8125,28.375,-0.0401611328125,-0.30517578125,0.62445068359375,0.71783447265625,-617.0,568.0,-526.0,380.0,-430.0,794.0,6859,6684.716928667245,2236.4683863091036,
224,6.1481921672821045,0.025854110717773438,38.678568793803024,36.43347408560627,101414.0,-142.0,-58.0,1163.0,7.375,24.5,-50.0,-140.0,69.3125,29.1875,278.4375,22.25,31.5,-0.06292724609375,-0.3187255859375,0.61761474609375,0.71624755859375,-514.0,415.0,65.0,382.0,-454.0,780.0,6920,6731.773542933796,2194.8297968894185,
225,6.174831867218018,0.026639699935913086,37.53796035262004,36.43823910324064,101414.0,-118.0,27.0,1006.0,0.25,27.5,-50.0,-23.1875,37.0625,24.0,278.4375,21.0625,32.6875,-0.07781982421875,-0.318603515625,0.616943359375,0.7154541015625,-471.0,522.0,236.0,352.0,-494.0,769.0,7037,6792.818834347037,2204.498390078915,
226,6.201547145843506,0.02671527862548828,37.43176382393889,36.442519049697644,101418.5,-129.0,296.0,320.0,0.25,27.5,-50.0,58.625,-0.5,31.4375,277.375,20.5,31.75,-0.0732421875,-0.3106689453125,0.62554931640625,0.7119140625,-473.0,780.0,-459.0,343.0,-483.0,780.0,7145,6863.25506747763,2247.7037953902486,
227,6.226446151733398,0.024899005889892578,40.16224601183523,36.45739390788834,101418.5,-77.0,211.0,454.0,3.25,31.1875,-49.25,53.0625,11.9375,32.6875,276.375,20.0625,30.75,-0.06817626953125,-0.30303955078125,0.63336181640625,0.70880126953125,-413.0,682.0,-336.0,336.0,-471.0,791.0,7187,6928.004053982104,2282.9798883521903,
228,6.254766225814819,0.0283200740814209,35.31064209524932,36.45220169204614,101418.5,13.0,-138.0,921.0,3.25,31.1875,-49.25,35.5625,25.5,13.125,275.75,19.125,30.0625,-0.0687255859375,-0.294189453125,0.63909912109375,0.70733642578125,-308.0,325.0,119.0,321.0,-464.0,801.0,7271,6996.603243185683,2296.9100413161586,
229,6.282174110412598,0.02740788459777832,36.485851231329974,36.45234849833855,101418.5,194.0,-246.0,1127.0,3.0,30.0,-50.75,94.75,75.6875,60.5,274.625,17.1875,27.875,-0.06683349609375,-0.27105712890625,0.65069580078125,0.7061767578125,-95.0,191.0,299.0,290.0,-438.0,827.0,7337,7064.682594548547,2315.612345759633,
230,6.311897277832031,0.029723167419433594,33.64378990599031,36.43912279874727,101418.5,294.0,-656.0,1759.0,3.0,30.0,-50.75,142.0,139.4375,112.1875,272.0625,12.8125,24.5,-0.070556640625,-0.226806640625,0.674072265625,0.699462890625,77.0,-259.0,889.0,217.0,-396.0,870.0,7492,7150.146075638839,2371.582651427305,
231,6.336766004562378,0.02486872673034668,40.211145944184,36.45392615628909,101418.5,176.0,-1175.0,2749.0,5.6875,27.375,-52.0625,150.125,172.6875,139.75,269.875,8.875,21.75,-0.0762939453125,-0.18829345703125,0.6929931640625,0.69171142578125,24.0,-816.0,1849.0,151.0,-359.0,899.0,7576,7235.316860511071,2476.905872352379,
232,6.371973276138306,0.035207271575927734,28.40322340353491,36.40944334603395,101418.5,-141.0,-1438.0,2452.0,14.5625,20.6875,-54.75,226.0625,-15.3125,117.6875,265.3125,4.6875,15.25,-0.05963134765625,-0.125732421875,0.72796630859375,0.67132568359375,-85.0,-907.0,1109.0,80.0,-258.0,942.0,7806,7349.453488408857,2553.4000991878356,
233,6.417469024658203,0.04549574851989746,21.980075777028976,36.30714836405613,0,0,0,0,0,0,0,0,0,0,0,0,0,0,0,0,0,0,0,0,0,0,0,,7349.453488408857,2553.4000991878356,
234,6.455743074417114,0.03827404975891113,26.127363221269146,36.24679565196726,101418.5,269.0,-379.0,734.0,18.5625,9.875,-56.75,130.125,-52.1875,67.3125,257.25,10.25,2.875,0.054443359375,-0.0758056640625,0.7777099609375,0.62164306640625,93.0,-329.0,-229.0,175.0,-49.0,963.0,7980,7475.562790727086,2627.550443993974,
235,6.503602027893066,0.04785895347595215,20.894731860412982,36.13382230218222,101418.5,49.0,0.0,295.0,12.25,0.5625,-59.1875,48.125,-16.0,70.0,253.25,10.4375,-0.3125,0.07489013671875,-0.0518798828125,0.799072265625,0.59429931640625,-128.0,-6.0,-668.0,177.0,5.0,964.0,8063,7593.05023258167,2610.2822590463147,
236,6.527918100357056,0.024316072463989258,41.125062506740925,36.15241434893179,101418.5,-2.0,-15.0,153.0,12.25,0.5625,-59.1875,29.125,-28.625,52.3125,252.6875,10.6875,-0.5,0.07806396484375,-0.05169677734375,0.8016357421875,0.5904541015625,-200.0,-41.0,-849.0,187.0,9.0,962.0,,7593.05023258167,2610.2822590463147,
237,6.549135208129883,0.02121710777282715,47.131777370745354,36.18798398081565,0,0,0,0,0,0,0,0,0,0,0,0,0,0,0,0,0,0,0,0,0,0,0,,7593.05023258167,2610.2822590463147,
238,6.5882110595703125,0.03907585144042969,25.591252989700784,36.125132884786865,101415.75,-86.0,-122.0,176.0,9.5,-7.0,-61.75,-10.5,-42.8125,38.4375,250.8125,14.25,0.375,0.09906005859375,-0.0748291015625,0.80865478515625,0.5750732421875,-278.0,-120.0,-789.0,241.0,-6.0,950.0,8485,7771.440186065336,2805.77627618383,
239,6.6250293254852295,0.03681826591491699,27.160431789777693,36.07531201116535,101415.75,33.0,-114.0,182.0,9.5,-7.0,-61.75,-21.0625,-17.875,33.0625,250.1875,14.6875,0.9375,0.10028076171875,-0.08038330078125,0.8114013671875,0.5701904296875,-216.0,-98.0,-765.0,249.0,-15.0,948.0,8738,7964.75214885227,3050.242286507703,
240,6.652504205703735,0.02747488021850586,36.39688297263056,36.07664010106576,101415.75,202.0,-14.0,-77.0,6.5,-5.375,-63.0,-44.375,30.25,14.375,249.4375,13.9375,2.4375,0.0877685546875,-0.086669921875,0.81549072265625,0.56549072265625,-25.0,33.0,-1055.0,236.0,-41.0,950.0,,7964.75214885227,3050.242286507703,
241,6.676197052001953,0.023692846298217773,42.206832704402515,36.098395257481606,101415.75,205.0,-73.0,-48.0,6.5,-5.375,-63.0,-53.875,33.875,5.0625,249.4375,13.5625,3.0,0.08282470703125,-0.08880615234375,0.8155517578125,0.56573486328125,-25.0,-23.0,-1000.0,230.0,-50.0,951.0,8808,8133.401719081817,3457.03447749172,
242,6.7263171672821045,0.05012011528015137,19.952069032770588,35.97808339712661,101415.75,219.0,-178.0,421.0,8.75,-2.25,-65.1875,-63.75,36.5625,-20.0625,250.5625,11.75,6.3125,0.05218505859375,-0.1038818359375,0.81060791015625,0.57391357421875,19.0,-71.0,-532.0,199.0,-96.0,954.0,9029,8312.521375265453,3468.7118042727516,
243,6.758671283721924,0.032354116439819336,30.90796813629765,35.95381248756082,101415.75,622.0,-174.0,432.0,8.75,-2.25,-65.1875,-72.8125,34.875,-34.0,251.625,10.75,8.0625,0.0355224609375,-0.11181640625,0.80523681640625,0.58123779296875,439.0,-38.0,-520.0,183.0,-136.0,953.0,9287,8507.417100212362,3724.223709501447,
244,6.79500412940979,0.03633284568786621,27.523305182064558,35.90873461635316,101415.75,710.0,-474.0,1650.0,10.5625,1.0625,-64.6875,-117.75,112.375,-67.0,254.5,8.8125,11.625,0.0008544921875,-0.12713623046875,0.78948974609375,0.6004638671875,607.0,-423.0,948.0,151.0,-195.0,948.0,9671,8740.13368016989,3992.3142836610414,
245,6.82549524307251,0.030491113662719727,32.796440663387784,35.894831257652854,101415.75,805.0,-1045.0,2857.0,13.5,8.1875,-63.5,-127.6875,78.25,-51.625,256.625,5.0,15.5625,-0.0379638671875,-0.12896728515625,0.78070068359375,0.6102294921875,322.0,-886.0,2051.0,96.0,-242.0,945.0,9151,8822.306944135913,3862.581912872792,
246,6.852330207824707,0.026834964752197266,37.264815110968954,35.90019636226688,101415.75,1042.0,-616.0,1713.0,13.5,8.1875,-63.5,-81.5625,-236.4375,-118.625,258.875,10.3125,17.5,-0.02520751953125,-0.1741943359375,0.76025390625,0.6253662109375,908.0,-250.0,440.0,176.0,-290.0,919.0,,8822.306944135913,3862.581912872792,
247,6.88284707069397,0.030516862869262695,32.76876801800042,35.886312373797374,101415.75,1140.0,-753.0,1100.0,17.5625,14.875,-63.25,-152.1875,-178.75,-134.0625,261.0,14.875,19.9375,-0.00970458984375,-0.21380615234375,0.7425537109375,0.6346435546875,888.0,-430.0,209.0,252.0,-323.0,890.0,9676,8993.04555530873,4035.8131157092757,
248,6.9279351234436035,0.04508805274963379,22.178824300814856,35.797101961995416,101415.75,-426.0,-956.0,1679.0,5.5625,24.75,-64.0625,-158.25,128.75,-98.5,268.9375,14.25,26.375,-0.0650634765625,-0.248291015625,0.69921875,0.6771240234375,-643.0,-390.0,1186.0,253.0,-403.0,857.0,,8993.04555530873,4035.8131157092757,
249,6.951902151107788,0.02396702766418457,41.7239890574484,35.81753519938737,101421.0,-254.0,-160.0,1129.0,5.5625,24.75,-64.0625,-177.25,-89.25,-79.75,271.5625,17.5,30.8125,-0.07366943359375,-0.2918701171875,0.6649169921875,0.68353271484375,-233.0,411.0,69.0,295.0,-479.0,802.0,9184,9031.236444246984,3791.5794273537417,
250,6.979280948638916,0.02737879753112793,36.52461357600035,35.820308974487475,101421.0,25.0,-60.0,522.0,9.0625,34.6875,-58.5625,-0.75,-214.875,-126.6875,273.0,22.25,31.75,-0.0489501953125,-0.32305908203125,0.65057373046875,0.68560791015625,-346.0,417.0,-248.0,371.0,-477.0,771.0,9343,9093.589155397587,3640.162352637541,
251,7.0080060958862305,0.028725147247314453,34.81270231237861,35.81617889107424,101421.0,-373.0,343.0,71.0,9.0625,34.6875,-58.5625,-42.5,-54.875,-51.375,274.6875,26.375,32.25,-0.02691650390625,-0.34765625,0.6348876953125,0.68939208984375,-805.0,807.0,-676.0,432.0,-464.0,748.0,9292,9133.27132431807,3414.2904707476155,
252,7.045480966567993,0.037474870681762695,26.684548386891546,35.767607803609565,101421.0,-476.0,502.0,114.0,-3.0625,38.375,-58.6875,-100.3125,65.0,36.9375,274.9375,24.4375,35.1875,-0.0572509765625,-0.353271484375,0.6309814453125,0.68829345703125,-737.0,1002.0,-355.0,406.0,-514.0,729.0,,9133.27132431807,3414.2904707476155,
253,7.075541019439697,0.0300600528717041,33.266741221912895,35.75698300736227,101421.0,-339.0,289.0,903.0,-4.875,43.0,-57.75,-68.375,-8.6875,37.75,274.375,22.5625,38.1875,-0.08502197265625,-0.3609619140625,0.6309814453125,0.68145751953125,-716.0,849.0,192.0,377.0,-560.0,710.0,9568,9220.217059454457,3362.101550785971,
254,7.1100380420684814,0.03449702262878418,28.98800892937363,35.724140784780566,101421.0,335.0,110.0,827.0,-4.875,43.0,-57.75,36.8125,-98.8125,16.6875,272.3125,24.25,38.875,-0.06915283203125,-0.375,0.64031982421875,0.666748046875,3.0,579.0,182.0,403.0,-561.0,695.0,9769,9329.973647563565,3344.0538913238165,
255,7.137671947479248,0.0276339054107666,36.18742936025193,35.72593443301302,101421.0,495.0,-42.0,1077.0,-0.875,46.875,-56.375,74.5625,-24.3125,33.5,271.6875,24.25,38.3125,-0.064697265625,-0.37213134765625,0.64471435546875,0.66461181640625,91.0,512.0,376.0,403.0,-554.0,700.0,,9329.973647563565,3344.0538913238165,
256,7.162978172302246,0.025306224822998047,39.51596917337152,35.7393243204201,101421.0,334.0,-628.0,2110.0,-0.875,46.875,-56.375,103.5625,219.5625,116.875,269.375,18.0625,34.875,-0.08575439453125,-0.32080078125,0.67059326171875,0.66339111328125,30.0,-94.0,1346.0,304.0,-533.0,764.0,10013,9466.578918050853,3549.457467941007,
257,7.188913106918335,0.025934934616088867,38.558030502210904,35.74949316784383,101421.0,424.0,-422.0,2024.0,-1.1875,44.25,-59.0625,225.8125,248.3125,127.3125,267.625,12.5625,31.0,-0.09918212890625,-0.23956298828125,0.69964599609375,0.665771484375,305.0,-24.0,1702.0,258.0,-519.0,790.0,10177,9608.663134440683,3742.3604760910885,
258,7.216785907745361,0.027872800827026367,35.877269966725684,35.7499866697034,101421.0,-305.0,-1798.0,3901.0,-1.1875,44.25,-59.0625,236.9375,174.75,0.75,267.25,7.125,23.125,-0.09161376953125,-0.1883544921875,0.70751953125,0.6749267578125,-427.0,-1416.0,3006.0,122.0,-382.0,894.0,10196,9726.130507552547,3789.5652942236225,
259,7.266831159591675,0.05004525184631348,19.981915628498605,35.64139503339627,101421.0,445.0,-1067.0,1457.0,14.5,36.75,-63.0625,517.0625,-148.6875,160.5,261.75,4.5,4.8125,0.0023193359375,-0.0576171875,0.75457763671875,0.6536865234375,368.0,-985.0,482.0,77.0,-82.0,974.0,,9726.130507552547,3789.5652942236225,
260,7.316014289855957,0.04918313026428223,20.332174764529373,35.538476238421765,0,0,0,0,0,0,0,0,0,0,0,0,0,0,0,0,0,0,0,0,0,0,0,,9726.130507552547,3789.5652942236225,
261,7.37225604057312,0.056241750717163086,17.780385340935585,35.40300263088934,101426.25,-431.0,-110.0,-360.0,17.5,-9.875,-74.5,160.8125,-22.3125,90.3125,250.25,14.25,-23.9375,0.22076416015625,0.0927734375,0.7940673828125,0.55865478515625,-674.0,-496.0,-1228.0,242.0,386.0,868.0,,9726.130507552547,3789.5652942236225,
262,7.423094034194946,0.05083799362182617,19.670327815035407,35.295255427599415,101426.25,-281.0,-567.0,-288.0,9.875,-28.875,-72.5625,68.25,-75.5625,51.5625,246.6875,18.125,-27.9375,0.2633056640625,0.1044921875,0.8009033203125,0.52752685546875,-586.0,-1004.0,-1111.0,305.0,436.0,823.0,,9726.130507552547,3789.5652942236225,
263,7.469295263290405,0.046201229095458984,21.64444582056125,35.21081852160469,0,0,0,0,0,0,0,0,0,0,0,0,0,0,0,0,0,0,0,0,0,0,0,,9726.130507552547,3789.5652942236225,
264,7.530301094055176,0.06100583076477051,16.391875784068127,35.05835911507121,0,0,0,0,0,0,0,0,0,0,0,0,0,0,0,0,0,0,0,0,0,0,0,,9726.130507552547,3789.5652942236225,
265,7.588805198669434,0.05850410461425781,17.092817787630814,34.919858009593284,0,0,0,0,0,0,0,0,0,0,0,0,0,0,0,0,0,0,0,0,0,0,0,11973,10175.504406042039,4178.715381341079,
266,7.634420156478882,0.04561495780944824,21.922633452329308,34.84220078904899,101426.25,1000.0,199.0,2407.0,-0.75,-22.1875,-75.0625,28.6875,-317.4375,8.5,254.1875,26.0,-9.25,0.22491455078125,-0.0767822265625,0.7745361328125,0.58624267578125,570.0,57.0,1537.0,429.0,141.0,869.0,,10175.504406042039,4178.715381341079,
267,7.665394067764282,0.03097391128540039,32.285234847668455,34.83186873885979,101426.25,775.0,733.0,522.0,-0.75,-22.1875,-75.0625,-13.4375,-317.3125,2.8125,254.125,36.25,-10.9375,0.29803466796875,-0.12371826171875,0.75518798828125,0.57061767578125,195.0,583.0,-254.0,579.0,150.0,776.0,,10175.504406042039,4178.715381341079,
268,7.695528984069824,0.030134916305541992,33.184097472210134,34.82541623256504,101419.0,-559.0,577.0,603.0,-7.375,-15.5,-77.75,-171.625,-35.3125,-32.625,256.375,39.5625,-8.1875,0.3031005859375,-0.16363525390625,0.73779296875,0.58056640625,-1184.0,468.0,-144.0,624.0,108.0,747.0,12100,10560.403524833631,5038.096830701771,
269,7.727144956588745,0.0316159725189209,31.629582148755343,34.81234032896333,101419.0,-882.0,560.0,797.0,-23.6875,-13.1875,-75.75,-158.5625,-40.8125,-57.6875,259.9375,39.75,-4.625,0.282470703125,-0.193359375,0.72003173828125,0.60357666015625,-1509.0,499.0,46.0,627.0,61.0,750.0,,10560.403524833631,5038.096830701771,
270,7.749239206314087,0.022094249725341797,45.26064530052876,34.84213002226125,101419.0,-599.0,539.0,525.0,-23.6875,-13.1875,-75.75,-120.1875,-164.4375,-34.8125,261.6875,42.375,-3.0,0.28759765625,-0.2208251953125,0.704833984375,0.60968017578125,-1260.0,501.0,-197.0,661.0,38.0,722.0,12372,10922.722819866905,6174.167657435459,
271,7.792062997817993,0.04282379150390625,23.35150543381436,34.77897959447812,101419.0,-144.0,671.0,75.0,-27.75,-2.1875,-77.1875,-60.25,-12.25,-34.8125,264.6875,45.9375,0.375,0.2869873046875,-0.26513671875,0.68023681640625,0.62017822265625,-849.0,676.0,-605.0,705.0,-4.0,681.0,,10922.722819866905,6174.167657435459,
272,7.840173244476318,0.048110246658325195,20.785592871762088,34.69311091966414,101419.0,352.0,1297.0,-120.0,-35.75,4.0,-74.375,2.375,100.375,-9.25,266.4375,43.3125,-0.125,0.2696533203125,-0.25225830078125,0.677001953125,0.63665771484375,-320.0,1295.0,-715.0,685.0,0.0,701.0,,10922.722819866905,6174.167657435459,
273,7.868550062179565,0.02837681770324707,35.24003327143949,34.69508331810496,101419.0,913.0,1636.0,230.0,-35.75,4.0,-74.375,9.1875,71.375,-31.8125,266.75,41.625,-0.625,0.2615966796875,-0.24102783203125,0.6790771484375,0.64215087890625,261.0,1628.0,-501.0,651.0,8.0,732.0,,10922.722819866905,6174.167657435459,
274,7.903259992599487,0.034709930419921875,28.810198922958566,34.66923779004742,101419.0,1240.0,1071.0,2672.0,-32.5,5.875,-76.375,97.3125,63.8125,-123.8125,270.375,39.875,-5.375,0.267822265625,-0.21533203125,0.66156005859375,0.66650390625,611.0,1001.0,1923.0,629.0,70.0,749.0,12854,11308.978255893526,6669.560486392016,
275,7.9320080280303955,0.028748035430908203,34.784985652440746,34.669657295882175,0,0,0,0,0,0,0,0,0,0,0,0,0,0,0,0,0,0,0,0,0,0,0,,11308.978255893526,6669.560486392016,
276,7.994996070861816,0.0629880428314209,15.876029085018036,34.521592950607754,101419.0,2980.0,-1385.0,3510.0,-23.0,-14.0,-80.25,460.25,-137.0,-159.1875,269.6875,38.0,-41.5625,0.45172119140625,-0.035888671875,0.6318359375,0.62884521484375,2376.0,-1898.0,2932.0,604.0,512.0,577.0,,11308.978255893526,6669.560486392016,
277,8.017987251281738,0.022991180419921875,43.49493943919031,34.54732357621538,0,0,0,0,0,0,0,0,0,0,0,0,0,0,0,0,0,0,0,0,0,0,0,,11308.978255893526,6669.560486392016,
278,8.076828002929688,0.05884075164794922,16.995024230538583,34.419452772692665,0,0,0,0,0,0,0,0,0,0,0,0,0,0,0,0,0,0,0,0,0,0,0,,11308.978255893526,6669.560486392016,
279,8.135887145996094,0.05905914306640625,16.932179304999355,34.29251106774557,0,0,0,0,0,0,0,0,0,0,0,0,0,0,0,0,0,0,0,0,0,0,0,,11308.978255893526,6669.560486392016,
280,8.197284936904907,0.06139779090881348,16.287230944272505,34.15765124125612,0,0,0,0,0,0,0,0,0,0,0,0,0,0,0,0,0,0,0,0,0,0,0,,11308.978255893526,6669.560486392016,
281,8.25729513168335,0.06001019477844238,16.663835264857905,34.030514292967354,0,0,0,0,0,0,0,0,0,0,0,0,0,0,0,0,0,0,0,0,0,0,0,,11308.978255893526,6669.560486392016,
282,8.316936016082764,0.05964088439941406,16.76702165083629,33.90671750446153,0,0,0,0,0,0,0,0,0,0,0,0,0,0,0,0,0,0,0,0,0,0,0,,11308.978255893526,6669.560486392016,
283,8.377071142196655,0.0601351261138916,16.6292159777976,33.78269029786359,0,0,0,0,0,0,0,0,0,0,0,0,0,0,0,0,0,0,0,0,0,0,0,,11308.978255893526,6669.560486392016,
284,8.436146974563599,0.05907583236694336,16.92739585603474,33.66465767563175,0,0,0,0,0,0,0,0,0,0,0,0,0,0,0,0,0,0,0,0,0,0,0,,11308.978255893526,6669.560486392016,
285,8.497034072875977,0.06088709831237793,16.423840644688873,33.54111535338784,0,0,0,0,0,0,0,0,0,0,0,0,0,0,0,0,0,0,0,0,0,0,0,,11308.978255893526,6669.560486392016,
286,8.556941270828247,0.05990719795227051,16.692484946412012,33.423157989293685,0,0,0,0,0,0,0,0,0,0,0,0,0,0,0,0,0,0,0,0,0,0,0,,11308.978255893526,6669.560486392016,
287,8.618293046951294,0.061351776123046875,16.29944662065535,33.30125796795988,0,0,0,0,0,0,0,0,0,0,0,0,0,0,0,0,0,0,0,0,0,0,0,,11308.978255893526,6669.560486392016,
288,8.67967414855957,0.06138110160827637,16.29165938372739,33.18096913209522,0,0,0,0,0,0,0,0,0,0,0,0,0,0,0,0,0,0,0,0,0,0,0,,11308.978255893526,6669.560486392016,
289,8.73996615409851,0.06029200553894043,16.58594686080124,33.06648960699655,0,0,0,0,0,0,0,0,0,0,0,0,0,0,0,0,0,0,0,0,0,0,0,,11308.978255893526,6669.560486392016,
290,8.800400018692017,0.06043386459350586,16.54701394203836,32.95304751875382,0,0,0,0,0,0,0,0,0,0,0,0,0,0,0,0,0,0,0,0,0,0,0,,11308.978255893526,6669.560486392016,
291,8.861042022705078,0.06064200401306152,16.49022020750852,32.84038144208735,0,0,0,0,0,0,0,0,0,0,0,0,0,0,0,0,0,0,0,0,0,0,0,,11308.978255893526,6669.560486392016,
292,8.920046091079712,0.05900406837463379,16.947983885631626,32.73525686061285,0,0,0,0,0,0,0,0,0,0,0,0,0,0,0,0,0,0,0,0,0,0,0,,11308.978255893526,6669.560486392016,
293,8.97902798652649,0.058981895446777344,16.954355102106813,32.63159447098975,0,0,0,0,0,0,0,0,0,0,0,0,0,0,0,0,0,0,0,0,0,0,0,,11308.978255893526,6669.560486392016,
294,9.039560079574585,0.0605320930480957,16.520162275000985,32.52370661978454,0,0,0,0,0,0,0,0,0,0,0,0,0,0,0,0,0,0,0,0,0,0,0,,11308.978255893526,6669.560486392016,
295,9.100633144378662,0.06107306480407715,16.37383031632697,32.415327078887636,0,0,0,0,0,0,0,0,0,0,0,0,0,0,0,0,0,0,0,0,0,0,0,,11308.978255893526,6669.560486392016,
296,9.16203498840332,0.0614018440246582,16.286155829430996,32.30723309555755,0,0,0,0,0,0,0,0,0,0,0,0,0,0,0,0,0,0,0,0,0,0,0,,11308.978255893526,6669.560486392016,
297,9.22495698928833,0.06292200088500977,15.892692316436415,32.19527205870609,0,0,0,0,0,0,0,0,0,0,0,0,0,0,0,0,0,0,0,0,0,0,0,,11308.978255893526,6669.560486392016,
298,9.283618211746216,0.05866122245788574,17.047036493621032,32.09955355800303,0,0,0,0,0,0,0,0,0,0,0,0,0,0,0,0,0,0,0,0,0,0,0,,11308.978255893526,6669.560486392016,
299,9.342616081237793,0.05899786949157715,16.94976460366531,32.00388385866176,0,0,0,0,0,0,0,0,0,0,0,0,0,0,0,0,0,0,0,0,0,0,0,,11308.978255893526,6669.560486392016,
300,9.403183937072754,0.06056785583496094,16.510407809793733,31.90408716958387,0,0,0,0,0,0,0,0,0,0,0,0,0,0,0,0,0,0,0,0,0,0,0,,11308.978255893526,6669.560486392016,
301,9.463929176330566,0.0607452392578125,16.46219542828435,31.804971739730014,0,0,0,0,0,0,0,0,0,0,0,0,0,0,0,0,0,0,0,0,0,0,0,,11308.978255893526,6669.560486392016,
302,9.524718284606934,0.06078910827636719,16.450315333688934,31.706974524177536,0,0,0,0,0,0,0,0,0,0,0,0,0,0,0,0,0,0,0,0,0,0,0,,11308.978255893526,6669.560486392016,
303,9.584872007369995,0.06015372276306152,16.6240750209074,31.612315716581023,0,0,0,0,0,0,0,0,0,0,0,0,0,0,0,0,0,0,0,0,0,0,0,,11308.978255893526,6669.560486392016,
304,9.645041942596436,0.06016993522644043,16.619595753870293,31.518784657370137,0,0,0,0,0,0,0,0,0,0,0,0,0,0,0,0,0,0,0,0,0,0,0,,11308.978255893526,6669.560486392016,
305,9.70815896987915,0.06311702728271484,15.843585210703655,31.41687326570392,0,0,0,0,0,0,0,0,0,0,0,0,0,0,0,0,0,0,0,0,0,0,0,,11308.978255893526,6669.560486392016,
306,9.768244981765747,0.06008601188659668,16.64280867712355,31.32599566976526,0,0,0,0,0,0,0,0,0,0,0,0,0,0,0,0,0,0,0,0,0,0,0,,11308.978255893526,6669.560486392016,
307,9.827906131744385,0.059661149978637695,16.76132626270296,31.23757959067011,0,0,0,0,0,0,0,0,0,0,0,0,0,0,0,0,0,0,0,0,0,0,0,,11308.978255893526,6669.560486392016,
308,9.888353109359741,0.060446977615356445,16.543424327405113,31.147754999613138,0,0,0,0,0,0,0,0,0,0,0,0,0,0,0,0,0,0,0,0,0,0,0,,11308.978255893526,6669.560486392016,
309,9.949281215667725,0.0609281063079834,16.412786488802627,31.057519965703587,0,0,0,0,0,0,0,0,0,0,0,0,0,0,0,0,0,0,0,0,0,0,0,,11308.978255893526,6669.560486392016,
310,10.007888078689575,0.058606863021850586,17.06284807680573,30.975566229612667,0,0,0,0,0,0,0,0,0,0,0,0,0,0,0,0,0,0,0,0,0,0,0,,11308.978255893526,6669.560486392016,
311,10.068879127502441,0.06099104881286621,16.3958485624377,30.887251307896346,0,0,0,0,0,0,0,0,0,0,0,0,0,0,0,0,0,0,0,0,0,0,0,,11308.978255893526,6669.560486392016,
312,10.127251148223877,0.05837202072143555,17.131495323285545,30.807965106574724,0,0,0,0,0,0,0,0,0,0,0,0,0,0,0,0,0,0,0,0,0,0,0,,11308.978255893526,6669.560486392016,
313,10.18592119216919,0.0586700439453125,17.0444733420026,30.72868855893275,0,0,0,0,0,0,0,0,0,0,0,0,0,0,0,0,0,0,0,0,0,0,0,,11308.978255893526,6669.560486392016,
314,10.245414972305298,0.0594937801361084,16.80847977237662,30.647855733397158,0,0,0,0,0,0,0,0,0,0,0,0,0,0,0,0,0,0,0,0,0,0,0,,11308.978255893526,6669.560486392016,
315,10.305138111114502,0.0597231388092041,16.743929069010807,30.567275916492566,0,0,0,0,0,0,0,0,0,0,0,0,0,0,0,0,0,0,0,0,0,0,0,,11308.978255893526,6669.560486392016,
316,10.365253925323486,0.060115814208984375,16.634558030331874,30.48646972632058,0,0,0,0,0,0,0,0,0,0,0,0,0,0,0,0,0,0,0,0,0,0,0,,11308.978255893526,6669.560486392016,
317,10.42588496208191,0.06063103675842285,16.49320304358939,30.40509281973694,0,0,0,0,0,0,0,0,0,0,0,0,0,0,0,0,0,0,0,0,0,0,0,,11308.978255893526,6669.560486392016,
318,10.484751224517822,0.058866262435913086,16.987659121193342,30.329761115970047,0,0,0,0,0,0,0,0,0,0,0,0,0,0,0,0,0,0,0,0,0,0,0,,11308.978255893526,6669.560486392016,
319,10.543812274932861,0.05906105041503906,16.931632488293236,30.254711643377703,0,0,0,0,0,0,0,0,0,0,0,0,0,0,0,0,0,0,0,0,0,0,0,,11308.978255893526,6669.560486392016,
320,10.604006052017212,0.060193777084350586,16.61301297970856,30.177274365014725,0,0,0,0,0,0,0,0,0,0,0,0,0,0,0,0,0,0,0,0,0,0,0,,11308.978255893526,6669.560486392016,
321,10.665064096450806,0.06105804443359375,16.377858303136325,30.09827199321049,0,0,0,0,0,0,0,0,0,0,0,0,0,0,0,0,0,0,0,0,0,0,0,,11308.978255893526,6669.560486392016,
322,10.724225044250488,0.05916094779968262,16.90304224648282,30.025479572776387,0,0,0,0,0,0,0,0,0,0,0,0,0,0,0,0,0,0,0,0,0,0,0,,11308.978255893526,6669.560486392016,
323,10.784289121627808,0.060064077377319336,16.648886383754025,29.950977422538312,0,0,0,0,0,0,0,0,0,0,0,0,0,0,0,0,0,0,0,0,0,0,0,,11308.978255893526,6669.560486392016,
324,10.822767972946167,0.038478851318359375,25.988301774561318,29.936888678562415,0,0,0,0,0,0,0,0,0,0,0,0,0,0,0,0,0,0,0,0,0,0,0,,11308.978255893526,6669.560486392016,
325,10.861051082611084,0.03828310966491699,26.121180038736757,29.923439041764215,101416.75,561.0,-26.0,500.0,-35.875,-60.25,-33.1875,180.1875,34.8125,170.6875,191.125,45.75,-51.0625,0.4517822265625,0.27716064453125,0.84393310546875,0.08251953125,-141.0,-558.0,71.0,702.0,531.0,429.0,25883,14223.782604714821,13616.417355078207,
326,10.887398958206177,0.026347875595092773,37.95372406366787,29.9428726045061,101416.75,437.0,590.0,-301.0,-37.875,-57.875,-30.1875,92.125,106.5625,176.1875,183.0,48.5,-49.5,0.45062255859375,0.2861328125,0.8453369140625,0.02215576171875,-297.0,96.0,-722.0,734.0,493.0,421.0,25653,16509.62608377186,20930.402885256924,
327,10.914513111114502,0.027114152908325195,36.88110793581007,29.960108771779137,101416.75,441.0,709.0,184.0,-37.875,-57.875,-30.1875,-104.75,118.625,89.9375,178.75,48.75,-43.125,0.4345703125,0.26617431640625,0.8603515625,-0.00897216796875,-296.0,268.0,-286.0,737.0,441.0,471.0,25930,18393.700867017487,25786.039140733235,
328,10.942044019699097,0.027530908584594727,36.322811393139524,29.97611775363886,101416.75,335.0,-157.0,2010.0,-42.6875,-56.25,-26.0625,-193.6875,113.5,13.25,179.3125,47.4375,-37.5,0.41900634765625,0.2373046875,0.87640380859375,-0.0048828125,-387.0,-561.0,1484.0,722.0,403.0,525.0,26141,19943.16069361399,28835.508930931057,
329,10.970539093017578,0.028495073318481445,35.09378582126392,29.989410475680153,101416.75,-45.0,-43.0,1585.0,-42.6875,-56.25,-26.0625,-85.4375,153.5,95.625,178.3125,44.9375,-30.0,0.39080810546875,0.2027587890625,0.89776611328125,-0.01287841796875,-738.0,-390.0,984.0,693.0,347.0,600.0,25958,21146.12855489119,30173.62768519055,
330,10.998204946517944,0.02766585350036621,36.14564068976809,30.004896399432774,101416.75,203.0,-43.0,770.0,-41.5625,-48.5625,-34.5,22.0625,11.5625,157.5,174.0625,45.3125,-25.25,0.38446044921875,0.18609619140625,0.9029541015625,-0.04656982421875,-493.0,-337.0,147.0,697.0,294.0,622.0,25972,22111.302843912956,30644.949222069805,
331,11.02335810661316,0.025153160095214844,39.756436018957345,30.027147517000802,101416.75,506.0,-10.0,485.0,-39.75,-42.75,-37.5625,86.9375,-24.1875,164.3125,168.4375,47.9375,-22.75,0.39617919921875,0.18511962890625,0.894775390625,-0.090576171875,-477.0,-299.0,-44.0,718.0,265.0,612.0,26375,22964.042275130367,30970.64236366653,
332,11.052512168884277,0.029154062271118164,34.30053728706831,30.038419766201855,101416.75,490.0,60.0,297.0,-39.75,-42.75,-37.5625,123.6875,21.875,132.625,164.6875,48.8125,-21.9375,0.39764404296875,0.1917724609375,0.8892822265625,-0.11944580078125,-182.0,-197.0,-283.0,738.0,241.0,598.0,26357,23642.633820104296,30201.183586406634,
333,11.076762914657593,0.02425074577331543,41.23584525389569,30.06293468278081,101416.75,324.0,95.0,314.0,-44.875,-39.0625,-34.5625,136.5625,71.75,89.5,159.6875,48.1875,-21.8125,0.383544921875,0.2086181640625,0.88555908203125,-0.1585693359375,-406.0,-147.0,-292.0,731.0,243.0,606.0,26806,24275.30705608344,29789.946793277704,
334,11.103531122207642,0.026768207550048828,37.35774979069063,30.080520901317833,101410.5,116.0,204.0,394.0,-44.875,-39.0625,-34.5625,136.375,88.4375,70.75,155.25,46.8125,-22.5625,0.3631591796875,0.228515625,0.88238525390625,-0.193115234375,-598.0,-53.0,-225.0,715.0,257.0,619.0,26853,24790.84564486675,28736.8882746712,
335,11.13152003288269,0.027988910675048828,35.72843586554679,30.09472192570328,101410.5,176.0,312.0,505.0,-45.1875,-38.75,-31.1875,133.8125,94.0,69.8125,152.5,45.6875,-23.125,0.3475341796875,0.2410888671875,0.88018798828125,-0.21533203125,-525.0,43.0,-124.0,701.0,269.0,629.0,26886,25209.8765158934,27360.331207320072,
336,11.15703010559082,0.025510072708129883,39.20020187481892,30.115541216620848,101410.5,124.0,743.0,697.0,-45.1875,-38.75,-31.1875,130.375,105.3125,51.0,148.6875,43.75,-24.4375,0.321533203125,0.26080322265625,0.87664794921875,-0.2452392578125,-553.0,449.0,52.0,678.0,293.0,644.0,26910,25549.90121271472,25957.201762370056,
337,11.18511414527893,0.02808403968811035,35.60741300416833,30.129330431754482,101410.5,120.0,963.0,1019.0,-43.0625,-39.0,-29.0625,98.4375,81.5625,46.375,145.625,41.875,-25.375,0.297119140625,0.2747802734375,0.8736572265625,-0.27001953125,-534.0,649.0,360.0,654.0,313.0,659.0,26975,25834.920970171777,24376.363207945178,
338,11.210233211517334,0.02511906623840332,39.81039703104682,30.15102305389513,101410.5,183.0,1077.0,776.0,-43.0625,-39.0,-29.0625,85.4375,84.3125,59.5,143.5,40.875,-25.6875,0.28338623046875,0.281494140625,0.8707275390625,-0.28680419921875,-458.0,756.0,108.0,642.0,321.0,667.0,27008,26069.536776137422,22872.741725675794,
339,11.258585214614868,0.04835200309753418,20.681666444776457,30.110355212299776,101410.5,213.0,760.0,1642.0,-41.5625,-39.1875,-28.0,-130.75,133.1875,-21.9375,141.375,37.0625,-21.375,0.25323486328125,0.2540283203125,0.8809814453125,-0.30853271484375,-378.0,475.0,914.0,591.0,285.0,728.0,26886,26232.82942090994,20923.183954315275,
340,11.281471014022827,0.022885799407958984,43.69521825190124,30.13791371509808,101410.5,-556.0,339.0,1765.0,-40.6875,-38.5,-28.5,-93.0625,240.5,12.9375,142.125,31.1875,-16.875,0.21466064453125,0.21160888671875,0.9019775390625,-0.30914306640625,-1064.0,94.0,963.0,508.0,244.0,802.0,27003,26386.863536727957,19503.920989774433,
341,11.307959079742432,0.026488065719604492,37.75285106076562,30.155751147957563,101410.5,-458.0,403.0,1223.0,-40.6875,-38.5,-28.5,-4.625,158.875,110.875,140.0625,28.0625,-14.9375,0.189697265625,0.19451904296875,0.9046630859375,-0.328369140625,-920.0,180.0,387.0,461.0,223.0,835.0,27121,26533.69082938237,18107.84378192074,
342,11.343655109405518,0.03569602966308594,28.01432006411969,30.149012527402473,101410.5,610.0,322.0,1043.0,-33.5,-36.1875,-37.0,35.0,-39.0625,168.875,133.4375,29.5625,-12.8125,0.19647216796875,0.19403076171875,0.8829345703125,-0.3797607421875,126.0,132.0,212.0,484.0,189.0,831.0,,26533.69082938237,18107.84378192074,
343,11.371692180633545,0.028037071228027344,35.667063505561416,30.162617361745244,0,0,0,0,0,0,0,0,0,0,0,0,0,0,0,0,0,0,0,0,0,0,0,27013,26629.5526635059,16638.970416273023,
344,11.430217981338501,0.058525800704956055,17.08648131174254,30.095664016349488,101410.5,405.0,45.0,859.0,-37.5,-27.0625,-38.0,71.3125,20.3125,147.875,121.625,27.5,-10.4375,0.1680908203125,0.189208984375,0.8447265625,-0.47161865234375,-48.0,-112.0,3.0,453.0,157.0,855.0,,26629.5526635059,16638.970416273023,
345,11.467564105987549,0.03734612464904785,26.776539986338186,30.084854709455293,101410.5,389.0,120.0,987.0,-37.5,-27.0625,-38.0,19.375,50.0,110.75,116.375,27.6875,-9.3125,0.16497802734375,0.18975830078125,0.8226318359375,-0.50994873046875,-66.0,-20.0,131.0,455.0,141.0,856.0,,26629.5526635059,16638.970416273023,
346,11.518490314483643,0.05092620849609375,19.63625468164794,30.038658761116533,0,0,0,0,0,0,0,0,0,0,0,0,0,0,0,0,0,0,0,0,0,0,0,,26629.5526635059,16638.970416273023,
347,11.577672004699707,0.05918169021606445,16.89711794896586,29.97148302863847,0,0,0,0,0,0,0,0,0,0,0,0,0,0,0,0,0,0,0,0,0,0,0,,26629.5526635059,16638.970416273023,
348,11.637774229049683,0.060102224349975586,16.638319310396806,29.90262511978779,0,0,0,0,0,0,0,0,0,0,0,0,0,0,0,0,0,0,0,0,0,0,0,,26629.5526635059,16638.970416273023,
349,11.696339130401611,0.05856490135192871,17.075073583592182,29.838396109160744,0,0,0,0,0,0,0,0,0,0,0,0,0,0,0,0,0,0,0,0,0,0,0,,26629.5526635059,16638.970416273023,
350,11.7565279006958,0.06018877029418945,16.61439492968905,29.77069445642072,0,0,0,0,0,0,0,0,0,0,0,0,0,0,0,0,0,0,0,0,0,0,0,,26629.5526635059,16638.970416273023,
351,11.81508207321167,0.05855417251586914,17.07820223621098,29.70779194126989,0,0,0,0,0,0,0,0,0,0,0,0,0,0,0,0,0,0,0,0,0,0,0,,26629.5526635059,16638.970416273023,
352,11.875776052474976,0.060693979263305664,16.476098818002193,29.64016822518654,0,0,0,0,0,0,0,0,0,0,0,0,0,0,0,0,0,0,0,0,0,0,0,,26629.5526635059,16638.970416273023,
353,11.934954166412354,0.05917811393737793,16.89813908327995,29.576988321699755,0,0,0,0,0,0,0,0,0,0,0,0,0,0,0,0,0,0,0,0,0,0,0,,26629.5526635059,16638.970416273023,
354,11.995800256729126,0.06084609031677246,16.434909700752723,29.510327983447482,0,0,0,0,0,0,0,0,0,0,0,0,0,0,0,0,0,0,0,0,0,0,0,,26629.5526635059,16638.970416273023,
355,12.055979013442993,0.06017875671386719,16.6171595195081,29.445970302715192,0,0,0,0,0,0,0,0,0,0,0,0,0,0,0,0,0,0,0,0,0,0,0,,26629.5526635059,16638.970416273023,
356,12.118009090423584,0.06203007698059082,16.121211655321652,29.377763075069293,0,0,0,0,0,0,0,0,0,0,0,0,0,0,0,0,0,0,0,0,0,0,0,,26629.5526635059,16638.970416273023,
357,12.179107189178467,0.06109809875488281,16.36712140605001,29.312493473840686,0,0,0,0,0,0,0,0,0,0,0,0,0,0,0,0,0,0,0,0,0,0,0,,26629.5526635059,16638.970416273023,
358,12.239586114883423,0.060478925704956055,16.534685236944497,29.249355054961335,0,0,0,0,0,0,0,0,0,0,0,0,0,0,0,0,0,0,0,0,0,0,0,,26629.5526635059,16638.970416273023,
359,12.300394058227539,0.06080794334411621,16.445219900645764,29.186056828794893,0,0,0,0,0,0,0,0,0,0,0,0,0,0,0,0,0,0,0,0,0,0,0,,26629.5526635059,16638.970416273023,
360,12.36176609992981,0.06137204170227051,16.29406440234176,29.122052390397847,0,0,0,0,0,0,0,0,0,0,0,0,0,0,0,0,0,0,0,0,0,0,0,,26629.5526635059,16638.970416273023,
361,12.422975063323975,0.06120896339416504,16.337476482984002,29.0590617915487,0,0,0,0,0,0,0,0,0,0,0,0,0,0,0,0,0,0,0,0,0,0,0,,26629.5526635059,16638.970416273023,
362,12.484758138656616,0.0617830753326416,16.185662410230883,28.995355454995774,0,0,0,0,0,0,0,0,0,0,0,0,0,0,0,0,0,0,0,0,0,0,0,,26629.5526635059,16638.970416273023,
363,12.546833038330078,0.062074899673461914,16.109570941884538,28.93160360794229,0,0,0,0,0,0,0,0,0,0,0,0,0,0,0,0,0,0,0,0,0,0,0,,26629.5526635059,16638.970416273023,
364,12.605333089828491,0.058500051498413086,17.094002045914895,28.8766665193258,0,0,0,0,0,0,0,0,0,0,0,0,0,0,0,0,0,0,0,0,0,0,0,,26629.5526635059,16638.970416273023,
365,12.666616201400757,0.061283111572265625,16.3177093059446,28.815904279126727,0,0,0,0,0,0,0,0,0,0,0,0,0,0,0,0,0,0,0,0,0,0,0,,26629.5526635059,16638.970416273023,
366,12.726668119430542,0.060051918029785156,16.65225746002001,28.758509027292586,0,0,0,0,0,0,0,0,0,0,0,0,0,0,0,0,0,0,0,0,0,0,0,,26629.5526635059,16638.970416273023,
367,12.78701400756836,0.06034588813781738,16.571137336088405,28.70099303737218,0,0,0,0,0,0,0,0,0,0,0,0,0,0,0,0,0,0,0,0,0,0,0,,26629.5526635059,16638.970416273023,
368,12.846920013427734,0.059906005859375,16.692817116658176,28.644998148611695,0,0,0,0,0,0,0,0,0,0,0,0,0,0,0,0,0,0,0,0,0,0,0,,26629.5526635059,16638.970416273023,
369,12.907119989395142,0.06019997596740723,16.611302312502723,28.588871901956512,0,0,0,0,0,0,0,0,0,0,0,0,0,0,0,0,0,0,0,0,0,0,0,,26629.5526635059,16638.970416273023,
370,12.96753215789795,0.06041216850280762,16.55295654473197,28.5327998800951,0,0,0,0,0,0,0,0,0,0,0,0,0,0,0,0,0,0,0,0,0,0,0,,26629.5526635059,16638.970416273023,
371,13.028656005859375,0.06112384796142578,16.360226545800632,28.475692337962585,0,0,0,0,0,0,0,0,0,0,0,0,0,0,0,0,0,0,0,0,0,0,0,,26629.5526635059,16638.970416273023,
372,13.089213132858276,0.06055712699890137,16.513332939624796,28.42034858964565,0,0,0,0,0,0,0,0,0,0,0,0,0,0,0,0,0,0,0,0,0,0,0,,26629.5526635059,16638.970416273023,
373,13.148929119110107,0.059715986251831055,16.745934594178074,28.367329127806865,0,0,0,0,0,0,0,0,0,0,0,0,0,0,0,0,0,0,0,0,0,0,0,,26629.5526635059,16638.970416273023,
374,13.21042513847351,0.06149601936340332,16.261215121756425,28.31097380134856,0,0,0,0,0,0,0,0,0,0,0,0,0,0,0,0,0,0,0,0,0,0,0,,26629.5526635059,16638.970416273023,
375,13.269750118255615,0.05932497978210449,16.856305786751438,28.259763496533417,0,0,0,0,0,0,0,0,0,0,0,0,0,0,0,0,0,0,0,0,0,0,0,,26629.5526635059,16638.970416273023,
376,13.330404281616211,0.0606541633605957,16.48691441105023,28.206196305579176,0,0,0,0,0,0,0,0,0,0,0,0,0,0,0,0,0,0,0,0,0,0,0,,26629.5526635059,16638.970416273023,
377,13.389672040939331,0.05926775932312012,16.872579821149134,28.15602942680829,0,0,0,0,0,0,0,0,0,0,0,0,0,0,0,0,0,0,0,0,0,0,0,,26629.5526635059,16638.970416273023,
378,13.45067811012268,0.06100606918334961,16.391811722774136,28.10267236382124,0,0,0,0,0,0,0,0,0,0,0,0,0,0,0,0,0,0,0,0,0,0,0,,26629.5526635059,16638.970416273023,
379,13.510698080062866,0.06001996994018555,16.66112130673467,28.051844379475355,0,0,0,0,0,0,0,0,0,0,0,0,0,0,0,0,0,0,0,0,0,0,0,,26629.5526635059,16638.970416273023,
380,13.570971965789795,0.06027388572692871,16.59093300422852,28.000942081224395,0,0,0,0,0,0,0,0,0,0,0,0,0,0,0,0,0,0,0,0,0,0,0,,26629.5526635059,16638.970416273023,
381,13.633292198181152,0.06232023239135742,16.046153257584454,27.94629458985923,0,0,0,0,0,0,0,0,0,0,0,0,0,0,0,0,0,0,0,0,0,0,0,,26629.5526635059,16638.970416273023,
382,13.69398808479309,0.06069588661193848,16.475581061918398,27.895452926836093,0,0,0,0,0,0,0,0,0,0,0,0,0,0,0,0,0,0,0,0,0,0,0,,26629.5526635059,16638.970416273023,
383,13.755194902420044,0.061206817626953125,16.33804923652228,27.844025672992554,0,0,0,0,0,0,0,0,0,0,0,0,0,0,0,0,0,0,0,0,0,0,0,,26629.5526635059,16638.970416273023,
384,13.81559705734253,0.06040215492248535,16.55570072430875,27.794672818422768,0,0,0,0,0,0,0,0,0,0,0,0,0,0,0,0,0,0,0,0,0,0,0,,26629.5526635059,16638.970416273023,
385,13.865026235580444,0.04942917823791504,20.230965507594505,27.76770800563021,0,0,0,0,0,0,0,0,0,0,0,0,0,0,0,0,0,0,0,0,0,0,0,,26629.5526635059,16638.970416273023,
386,13.926874876022339,0.06184864044189453,16.168504155551787,27.71619645011456,0,0,0,0,0,0,0,0,0,0,0,0,0,0,0,0,0,0,0,0,0,0,0,,26629.5526635059,16638.970416273023,
387,13.988044023513794,0.06116914749145508,16.34811078803564,27.666484273959675,0,0,0,0,0,0,0,0,0,0,0,0,0,0,0,0,0,0,0,0,0,0,0,,26629.5526635059,16638.970416273023,
388,14.047648191452026,0.05960416793823242,16.77735021880175,27.62028168075119,0,0,0,0,0,0,0,0,0,0,0,0,0,0,0,0,0,0,0,0,0,0,0,,26629.5526635059,16638.970416273023,
389,14.10725212097168,0.05960392951965332,16.77741732900795,27.574469972200827,0,0,0,0,0,0,0,0,0,0,0,0,0,0,0,0,0,0,0,0,0,0,0,,26629.5526635059,16638.970416273023,
390,14.168251991271973,0.06099987030029297,16.393477479167643,27.52633142325889,0,0,0,0,0,0,0,0,0,0,0,0,0,0,0,0,0,0,0,0,0,0,0,,26629.5526635059,16638.970416273023,
391,14.230070114135742,0.06181812286376953,16.176486015334536,27.47702554266348,0,0,0,0,0,0,0,0,0,0,0,0,0,0,0,0,0,0,0,0,0,0,0,,26629.5526635059,16638.970416273023,
392,14.290446281433105,0.06037616729736328,16.562826770285426,27.430913792335996,0,0,0,0,0,0,0,0,0,0,0,0,0,0,0,0,0,0,0,0,0,0,0,,26629.5526635059,16638.970416273023,
393,14.351165056228638,0.06071877479553223,16.469370526125658,27.384536270066217,0,0,0,0,0,0,0,0,0,0,0,0,0,0,0,0,0,0,0,0,0,0,0,,26629.5526635059,16638.970416273023,
394,14.411046981811523,0.05988192558288574,16.69952978742888,27.34013708353567,0,0,0,0,0,0,0,0,0,0,0,0,0,0,0,0,0,0,0,0,0,0,0,,26629.5526635059,16638.970416273023,
395,14.470202207565308,0.05915522575378418,16.904677266590088,27.297476174416293,0,0,0,0,0,0,0,0,0,0,0,0,0,0,0,0,0,0,0,0,0,0,0,,26629.5526635059,16638.970416273023,
396,14.528781175613403,0.0585789680480957,17.07097330869604,27.25624367339822,0,0,0,0,0,0,0,0,0,0,0,0,0,0,0,0,0,0,0,0,0,0,0,,26629.5526635059,16638.970416273023,
397,14.589410066604614,0.06062889099121094,16.49378676817567,27.21151836760961,0,0,0,0,0,0,0,0,0,0,0,0,0,0,0,0,0,0,0,0,0,0,0,,26629.5526635059,16638.970416273023,
398,14.650036096572876,0.06062602996826172,16.494565131899765,27.167168556881936,0,0,0,0,0,0,0,0,0,0,0,0,0,0,0,0,0,0,0,0,0,0,0,,26629.5526635059,16638.970416273023,
399,14.708133935928345,0.05809783935546875,17.212344057780697,27.1278465193563,0,0,0,0,0,0,0,0,0,0,0,0,0,0,0,0,0,0,0,0,0,0,0,,26629.5526635059,16638.970416273023,
400,14.767853260040283,0.05971932411193848,16.744998622650023,27.0858596003485,0,0,0,0,0,0,0,0,0,0,0,0,0,0,0,0,0,0,0,0,0,0,0,,26629.5526635059,16638.970416273023,
401,14.827811241149902,0.05995798110961914,16.678346760404324,27.043775610465776,0,0,0,0,0,0,0,0,0,0,0,0,0,0,0,0,0,0,0,0,0,0,0,,26629.5526635059,16638.970416273023,
402,14.888468980789185,0.06065773963928223,16.485942370203247,27.000761496612355,0,0,0,0,0,0,0,0,0,0,0,0,0,0,0,0,0,0,0,0,0,0,0,,26629.5526635059,16638.970416273023,
403,14.949066162109375,0.06059718132019043,16.5024177397969,26.958205658455327,0,0,0,0,0,0,0,0,0,0,0,0,0,0,0,0,0,0,0,0,0,0,0,,26629.5526635059,16638.970416273023,
404,15.009401082992554,0.06033492088317871,16.57414952007998,26.91646373936801,0,0,0,0,0,0,0,0,0,0,0,0,0,0,0,0,0,0,0,0,0,0,0,,26629.5526635059,16638.970416273023,
405,15.0680410861969,0.0586400032043457,17.05320507086691,26.878079086935916,0,0,0,0,0,0,0,0,0,0,0,0,0,0,0,0,0,0,0,0,0,0,0,,26629.5526635059,16638.970416273023,
406,15.127162218093872,0.059121131896972656,16.914425822270257,26.839138375496237,0,0,0,0,0,0,0,0,0,0,0,0,0,0,0,0,0,0,0,0,0,0,0,,26629.5526635059,16638.970416273023,
407,15.18752121925354,0.06035900115966797,16.567537248581946,26.798316468130267,0,0,0,0,0,0,0,0,0,0,0,0,0,0,0,0,0,0,0,0,0,0,0,,26629.5526635059,16638.970416273023,
408,15.248025178909302,0.06050395965576172,16.527843891367056,26.757563370523265,0,0,0,0,0,0,0,0,0,0,0,0,0,0,0,0,0,0,0,0,0,0,0,,26629.5526635059,16638.970416273023,
409,15.311522245407104,0.06349706649780273,15.748759039673182,26.711909726851946,0,0,0,0,0,0,0,0,0,0,0,0,0,0,0,0,0,0,0,0,0,0,0,,26629.5526635059,16638.970416273023,
410,15.373026132583618,0.06150388717651367,16.259134924757525,26.670090616120916,0,0,0,0,0,0,0,0,0,0,0,0,0,0,0,0,0,0,0,0,0,0,0,,26629.5526635059,16638.970416273023,
411,15.433279037475586,0.06025290489196777,16.596710180081434,26.630763235861707,0,0,0,0,0,0,0,0,0,0,0,0,0,0,0,0,0,0,0,0,0,0,0,,26629.5526635059,16638.970416273023,
412,15.490347146987915,0.0570681095123291,17.522921445014017,26.597208964430024,0,0,0,0,0,0,0,0,0,0,0,0,0,0,0,0,0,0,0,0,0,0,0,,26629.5526635059,16638.970416273023,
413,15.550618171691895,0.06027102470397949,16.591720564093436,26.55842973186872,0,0,0,0,0,0,0,0,0,0,0,0,0,0,0,0,0,0,0,0,0,0,0,,26629.5526635059,16638.970416273023,
414,15.611539125442505,0.06092095375061035,16.4147134677776,26.518845878898265,0,0,0,0,0,0,0,0,0,0,0,0,0,0,0,0,0,0,0,0,0,0,0,,26629.5526635059,16638.970416273023,
415,15.674118995666504,0.06257987022399902,15.97957931872645,26.47676721828748,0,0,0,0,0,0,0,0,0,0,0,0,0,0,0,0,0,0,0,0,0,0,0,,26629.5526635059,16638.970416273023,
416,15.736581325531006,0.06246232986450195,16.009649370577055,26.43522067433301,0,0,0,0,0,0,0,0,0,0,0,0,0,0,0,0,0,0,0,0,0,0,0,,26629.5526635059,16638.970416273023,
417,15.796353101730347,0.05977177619934082,16.730304226947638,26.398498268206062,0,0,0,0,0,0,0,0,0,0,0,0,0,0,0,0,0,0,0,0,0,0,0,,26629.5526635059,16638.970416273023,
418,15.856804132461548,0.06045103073120117,16.54231512522185,26.360923456466466,0,0,0,0,0,0,0,0,0,0,0,0,0,0,0,0,0,0,0,0,0,0,0,,26629.5526635059,16638.970416273023,
419,15.917941093444824,0.06113696098327637,16.356717506346836,26.32249972155938,0,0,0,0,0,0,0,0,0,0,0,0,0,0,0,0,0,0,0,0,0,0,0,,26629.5526635059,16638.970416273023,
420,15.978569030761719,0.06062793731689453,16.494046214587954,26.285207341872844,0,0,0,0,0,0,0,0,0,0,0,0,0,0,0,0,0,0,0,0,0,0,0,,26629.5526635059,16638.970416273023,
421,16.038897037506104,0.060328006744384766,16.576049068504627,26.24868773803548,0,0,0,0,0,0,0,0,0,0,0,0,0,0,0,0,0,0,0,0,0,0,0,,26629.5526635059,16638.970416273023,
422,16.100438117980957,0.061541080474853516,16.249308466539077,26.21046687721564,0,0,0,0,0,0,0,0,0,0,0,0,0,0,0,0,0,0,0,0,0,0,0,,26629.5526635059,16638.970416273023,
423,16.161762237548828,0.061324119567871094,16.306797505559615,26.17288843770011,0,0,0,0,0,0,0,0,0,0,0,0,0,0,0,0,0,0,0,0,0,0,0,,26629.5526635059,16638.970416273023,
424,16.221890211105347,0.060127973556518555,16.631194115664467,26.13752124334646,0,0,0,0,0,0,0,0,0,0,0,0,0,0,0,0,0,0,0,0,0,0,0,,26629.5526635059,16638.970416273023,
425,16.283520221710205,0.0616300106048584,16.225861235226986,26.10000750534049,0,0,0,0,0,0,0,0,0,0,0,0,0,0,0,0,0,0,0,0,0,0,0,,26629.5526635059,16638.970416273023,
426,16.343509197235107,0.059988975524902344,16.66972958364466,26.065393598093856,0,0,0,0,0,0,0,0,0,0,0,0,0,0,0,0,0,0,0,0,0,0,0,,26629.5526635059,16638.970416273023,
427,16.399113178253174,0.055603981018066406,17.984323814424148,26.03799335724103,101410.0,68.0,158.0,745.0,-29.0,-7.0,-93.1875,29.125,-2.9375,-1.3125,78.6875,9.0,-6.9375,0.0032958984375,0.09906005859375,0.630859375,-0.76953125,-85.0,40.0,-216.0,153.0,117.0,961.0,,26629.5526635059,16638.970416273023,
428,16.440500020980835,0.04138684272766113,24.16226834649661,26.03327146095315,101410.0,67.0,193.0,690.0,-28.875,-10.75,-94.875,21.1875,4.0,3.0625,78.5,9.0,-7.9375,-0.00341796875,0.10467529296875,0.6295166015625,-0.7698974609375,-86.0,59.0,-268.0,153.0,134.0,959.0,24166,26136.842130804722,13784.572963818606,
429,16.485003232955933,0.044503211975097656,22.47028822457945,26.023652767162716,101410.0,87.0,184.0,771.0,-29.5625,-12.25,-95.875,12.8125,3.0625,5.1875,78.3125,8.875,-8.4375,-0.00787353515625,0.10650634765625,0.62799072265625,-0.77081298828125,-64.0,41.0,-186.0,151.0,143.0,958.0,,26136.842130804722,13784.572963818606,
430,16.509217023849487,0.024213790893554688,41.298779046868844,26.04605653792151,101410.0,113.0,182.0,822.0,-29.5625,-12.25,-95.875,10.5,-0.625,4.6875,78.125,8.875,-8.75,-0.01007080078125,0.1082763671875,0.62664794921875,-0.77166748046875,-37.0,34.0,-135.0,151.0,148.0,957.0,24199,25749.27370464378,10805.5053876804,
431,16.537702083587646,0.02848505973815918,35.10612261979494,26.061661881533905,101410.0,131.0,182.0,838.0,-29.5625,-12.25,-95.875,9.125,-1.8125,2.9375,78.0625,8.875,-8.9375,-0.01104736328125,0.1094970703125,0.62603759765625,-0.77203369140625,-8.0,32.0,-104.0,152.0,151.0,956.0,,25749.27370464378,10805.5053876804,
432,16.560040950775146,0.0223388671875,44.76502732240437,26.08689201217095,0,0,0,0,0,0,0,0,0,0,0,0,0,0,0,0,0,0,0,0,0,0,0,24082,25415.818963715028,8232.243790066275,
433,16.604079961776733,0.044039011001586914,22.707140266250885,26.077927894636957,0,0,0,0,0,0,0,0,0,0,0,0,0,0,0,0,0,0,0,0,0,0,0,,25415.818963715028,8232.243790066275,
434,16.66421103477478,0.060131072998046875,16.630336864809998,26.0438372446395,0,0,0,0,0,0,0,0,0,0,0,0,0,0,0,0,0,0,0,0,0,0,0,,25415.818963715028,8232.243790066275,
435,16.725422143936157,0.06121110916137695,16.336903769601694,26.008312152390744,0,0,0,0,0,0,0,0,0,0,0,0,0,0,0,0,0,0,0,0,0,0,0,,25415.818963715028,8232.243790066275,
436,16.78609800338745,0.060675859451293945,16.481019124298115,25.97387432815028,0,0,0,0,0,0,0,0,0,0,0,0,0,0,0,0,0,0,0,0,0,0,0,,25415.818963715028,8232.243790066275,
437,16.848135948181152,0.06203794479370117,16.119167121434554,25.937587478167075,0,0,0,0,0,0,0,0,0,0,0,0,0,0,0,0,0,0,0,0,0,0,0,,25415.818963715028,8232.243790066275,
438,16.90842914581299,0.06029319763183594,16.585618930119264,25.904239608707908,0,0,0,0,0,0,0,0,0,0,0,0,0,0,0,0,0,0,0,0,0,0,0,,25415.818963715028,8232.243790066275,
439,16.969438076019287,0.06100893020629883,16.391043026300363,25.87003753650405,0,0,0,0,0,0,0,0,0,0,0,0,0,0,0,0,0,0,0,0,0,0,0,,25415.818963715028,8232.243790066275,
440,17.030465126037598,0.06102705001831055,16.38617628903839,25.836053022843824,0,0,0,0,0,0,0,0,0,0,0,0,0,0,0,0,0,0,0,0,0,0,0,,25415.818963715028,8232.243790066275,
441,17.089389085769653,0.058923959732055664,16.971025106718727,25.805486538264905,0,0,0,0,0,0,0,0,0,0,0,0,0,0,0,0,0,0,0,0,0,0,0,,25415.818963715028,8232.243790066275,
442,17.15023112297058,0.060842037200927734,16.436004545632667,25.77224743099797,0,0,0,0,0,0,0,0,0,0,0,0,0,0,0,0,0,0,0,0,0,0,0,,25415.818963715028,8232.243790066275,
443,17.21168804168701,0.061456918716430664,16.271560971257212,25.738323802235215,0,0,0,0,0,0,0,0,0,0,0,0,0,0,0,0,0,0,0,0,0,0,0,,25415.818963715028,8232.243790066275,
444,17.2722749710083,0.06058692932128906,16.505210136943177,25.70593629068891,0,0,0,0,0,0,0,0,0,0,0,0,0,0,0,0,0,0,0,0,0,0,0,,25415.818963715028,8232.243790066275,
445,17.3332359790802,0.060961008071899414,16.403928209660954,25.67322111907313,0,0,0,0,0,0,0,0,0,0,0,0,0,0,0,0,0,0,0,0,0,0,0,,25415.818963715028,8232.243790066275,
446,17.393067121505737,0.05983114242553711,16.71370392508468,25.64240089941016,0,0,0,0,0,0,0,0,0,0,0,0,0,0,0,0,0,0,0,0,0,0,0,,25415.818963715028,8232.243790066275,
447,17.45419716835022,0.06113004684448242,16.35856753952839,25.609886017017573,0,0,0,0,0,0,0,0,0,0,0,0,0,0,0,0,0,0,0,0,0,0,0,,25415.818963715028,8232.243790066275,
448,17.514403104782104,0.060205936431884766,16.609657772392108,25.57894764210827,0,0,0,0,0,0,0,0,0,0,0,0,0,0,0,0,0,0,0,0,0,0,0,,25415.818963715028,8232.243790066275,
449,17.575255155563354,0.06085205078125,16.433299899699097,25.547282018143072,0,0,0,0,0,0,0,0,0,0,0,0,0,0,0,0,0,0,0,0,0,0,0,,25415.818963715028,8232.243790066275,
450,17.636154890060425,0.06089973449707031,16.42043283535344,25.515765925463484,0,0,0,0,0,0,0,0,0,0,0,0,0,0,0,0,0,0,0,0,0,0,0,,25415.818963715028,8232.243790066275,
451,17.69516921043396,0.059014320373535156,16.945039672920604,25.487182102450184,0,0,0,0,0,0,0,0,0,0,0,0,0,0,0,0,0,0,0,0,0,0,0,,25415.818963715028,8232.243790066275,
452,17.755136013031006,0.0599668025970459,16.675893272476433,25.457422554705534,0,0,0,0,0,0,0,0,0,0,0,0,0,0,0,0,0,0,0,0,0,0,0,,25415.818963715028,8232.243790066275,
