Index,Time,Difference,Hz,AveHz,0x6103 Pressure,0x6103 Acceleration-X,0x6103 Acceleration-Y,0x6103 Acceleration-Z,0x6103 Magnetic-X,0x6103 Magnetic-Y,0x6103 Magnetic-Z,0x6103 Angular-Vel-X,0x6103 Angular-Vel-Y,0x6103 Angular-Vel-Z,0x6103 Heading,0x6103 Roll,0x6103 Pitch,0x6103 Quaternion-X,0x6103 Quaternion-Y,0x6103 Quaternion-Z,0x6103 Quaternion-W,0x6103 Linear-Acceleration-X,0x6103 Linear-Acceleration-Y,0x6103 Linear-Acceleration-Z,0x6103 Gravity-X,0x6103 Gravity-Y,0x6103 Gravity-Z,0x6103 Range,0x6103 Smoothed Range,0x6103 Velocity,
0,0.0,0.0,0,0,101416.0,-11.0,117.0,965.0,-2.0,-31.1875,-56.25,0.3125,-0.25,0.25,182.625,-0.3125,-7.5,0.0013427734375,-0.0657958984375,-0.99755859375,-0.02325439453125,-7.0,-8.0,-10.0,-5.0,128.0,972.0,1135,1131.0,,
1,0.025368928909301758,0.025368928909301758,39.41829801231145,39.41829801231145,101416.0,-1.0,124.0,972.0,-2.0,-31.1875,-56.25,0.75,0.4375,0.375,182.625,-0.3125,-7.5,0.001220703125,-0.06591796875,-0.99755859375,-0.023193359375,-2.0,-7.0,-2.0,-5.0,128.0,972.0,1107,1126.2,-18.920783045909317,
2,0.049204111099243164,0.023835182189941406,41.954787340455326,40.647010083487984,101416.0,-7.0,124.0,959.0,-2.0,-30.75,-56.25,1.3125,-0.75,1.125,182.625,-0.3125,-7.5625,0.001220703125,-0.0662841796875,-0.99755859375,-0.02301025390625,8.0,-6.0,-12.0,-5.0,129.0,972.0,1135,1127.96,-9.644662169398286,
3,0.07616186141967773,0.02695775032043457,37.09508353306388,39.38979358013561,101416.0,17.0,128.0,966.0,-2.0,-30.75,-56.25,0.9375,-1.0625,0.5,182.625,-0.25,-7.5625,0.0009765625,-0.06640625,-0.99749755859375,-0.02294921875,27.0,-2.0,-3.0,-4.0,129.0,972.0,1135,1129.368,-3.457208191003428,
4,0.10136675834655762,0.025204896926879883,39.67482997058184,39.460668026145264,101416.0,0.0,124.0,958.0,-1.5625,-31.5,-56.6875,-1.1875,1.875,-1.375,182.625,-0.3125,-7.5625,0.00146484375,-0.0662841796875,-0.99755859375,-0.02313232421875,2.0,-6.0,-10.0,-5.0,129.0,972.0,1135,1130.4944,1.3574854759836632,
5,0.12706589698791504,0.025699138641357422,38.91181000092773,39.34966122716262,101416.0,0.0,127.0,980.0,-1.5625,-31.5,-56.6875,-1.0,0.0625,-0.375,182.625,-0.3125,-7.5625,0.00146484375,-0.06610107421875,-0.99755859375,-0.023193359375,5.0,-2.0,8.0,-5.0,129.0,972.0,1135,1131.39552,4.728157951188865,
6,0.15323090553283691,0.026165008544921875,38.21898235894445,39.15659167539292,101416.0,3.0,125.0,976.0,-1.5625,-30.75,-56.25,1.0,-0.8125,0.0,182.625,-0.25,-7.5625,0.00115966796875,-0.06622314453125,-0.99755859375,-0.023193359375,9.0,-5.0,-10.0,-5.0,129.0,972.0,1144,1133.916416,13.88995013134332,
7,0.18131113052368164,0.028080224990844727,35.61225026957725,38.60766837525017,101416.0,0.0,125.0,960.0,-1.5625,-30.75,-56.25,0.1875,0.875,-1.1875,182.625,-0.3125,-7.5625,0.001220703125,-0.0662841796875,-0.99755859375,-0.0233154296875,5.0,-4.0,-11.0,-5.0,129.0,972.0,1144,1135.9331328,19.682937458655225,
8,0.20625901222229004,0.0249478816986084,40.08356348971225,38.78618400139635,101416.0,-17.0,120.0,972.0,-2.0,-30.375,-56.25,-2.0625,0.9375,-1.625,182.6875,-0.3125,-7.5,0.0015869140625,-0.06585693359375,-0.99755859375,-0.02374267578125,-14.0,-6.0,9.0,-6.0,128.0,972.0,1130,1134.7465062400001,12.958221607156128,
9,0.23459696769714355,0.028337955474853516,35.2883609012435,38.36366722189983,101416.0,-12.0,126.0,984.0,-2.0,-30.375,-56.25,0.25,0.0625,0.5,182.6875,-0.3125,-7.5,0.00164794921875,-0.06573486328125,-0.99755859375,-0.02386474609375,-5.0,-1.0,12.0,-6.0,128.0,972.0,1121,1131.9972049920002,1.960565979874417,
10,0.2633218765258789,0.02872490882873535,34.8129912600327,37.97633577557015,101416.0,5.0,132.0,956.0,-1.5625,-30.75,-55.5,1.0,-0.375,0.5625,182.6875,-0.3125,-7.5625,0.0015869140625,-0.06610107421875,-0.99755859375,-0.02362060546875,21.0,3.0,-9.0,-6.0,129.0,972.0,1139,1133.3977639936002,6.640274210072925,
11,0.29308295249938965,0.029761075973510742,33.60093569500188,37.53203625865243,101416.0,-8.0,125.0,978.0,-0.875,-29.6875,-57.0625,-0.0625,1.375,-1.5,182.6875,-0.375,-7.5625,0.00177001953125,-0.06610107421875,-0.99755859375,-0.0238037109375,-1.0,-3.0,6.0,-6.0,129.0,972.0,1130,1132.71821119488,3.6928857999502886,
12,0.31864094734191895,0.025557994842529297,39.12670012500233,37.659943268758084,101407.0,-16.0,127.0,964.0,-0.875,-29.6875,-57.0625,1.1875,1.0,-0.875,182.75,-0.4375,-7.5625,0.00225830078125,-0.06634521484375,-0.99749755859375,-0.024169921875,-6.0,-1.0,-7.0,-7.0,129.0,972.0,1130,1132.174568955904,1.1965045339855247,
13,0.347855806350708,0.029214859008789062,34.22915714565515,37.37180683105634,101407.0,-12.0,120.0,974.0,-2.0,-30.0,-56.0,1.0625,1.0,0.3125,182.75,-0.4375,-7.5625,0.00238037109375,-0.0665283203125,-0.99749755859375,-0.024169921875,-4.0,-9.0,2.0,-7.0,130.0,971.0,1153,1136.3396551647234,15.333593117274576,
14,0.3737199306488037,0.025864124298095703,38.663593960288345,37.461207850742746,101407.0,-7.0,123.0,960.0,-2.0,-30.0,-56.0,2.0,-1.3125,0.6875,182.75,-0.4375,-7.6875,0.002197265625,-0.067138671875,-0.9974365234375,-0.02398681640625,7.0,-9.0,-10.0,-7.0,131.0,971.0,1130,1135.0717241317789,8.897956742805649,
15,0.40100789070129395,0.027287960052490234,36.64619847274888,37.40574773670308,101407.0,3.0,127.0,961.0,-1.5625,-31.1875,-55.875,0.9375,-0.375,0.3125,182.6875,-0.375,-7.6875,0.00213623046875,-0.0673828125,-0.9974365234375,-0.02392578125,6.0,0.0,-14.0,-7.0,131.0,971.0,1148,1137.657379305423,17.483604336070712,
16,0.43114185333251953,0.030133962631225586,33.18514767665419,37.110755720716234,101407.0,-11.0,123.0,972.0,-1.5625,-31.1875,-55.875,0.1875,1.5625,0.0,182.6875,-0.4375,-7.6875,0.00238037109375,-0.0673828125,-0.9974365234375,-0.02392578125,-3.0,-8.0,0.0,-7.0,131.0,971.0,1130,1136.1259034443385,10.653018641131373,
17,0.46646595001220703,0.0353240966796875,28.309287257019438,36.44424635829287,101407.0,4.0,134.0,958.0,-1.1875,-30.75,-55.875,1.3125,1.0625,0.0,182.6875,-0.4375,-7.75,0.00250244140625,-0.06787109375,-0.9974365234375,-0.02386474609375,12.0,2.0,-13.0,-8.0,132.0,971.0,1130,1134.9007227554707,6.119317570727101,
18,0.4994988441467285,0.033032894134521484,30.27285456513894,36.036119424357416,101407.0,-8.0,125.0,962.0,-2.0,-31.1875,-56.0,-0.25,1.1875,-0.8125,182.75,-0.5,-7.75,0.00286865234375,-0.06793212890625,-0.99737548828125,-0.02398681640625,-4.0,-9.0,-10.0,-8.0,132.0,971.0,1134,1134.7205782043766,4.962036834056862,
19,0.5266010761260986,0.027102231979370117,36.89733010776336,36.08044278939207,101407.0,-11.0,127.0,969.0,-2.0,-31.1875,-56.0,0.5625,-0.0625,-0.625,182.75,-0.5,-7.75,0.00286865234375,-0.0679931640625,-0.99737548828125,-0.02398681640625,-5.0,-6.0,4.0,-8.0,132.0,971.0,1134,1134.5764625635013,3.9340849131445035,
20,0.5522959232330322,0.025694847106933594,38.918309022751735,36.21247081261059,101407.0,-8.0,127.0,967.0,-2.0,-31.1875,-55.875,1.125,0.1875,-0.125,182.75,-0.5,-7.8125,0.0029296875,-0.06829833984375,-0.99737548828125,-0.02398681640625,-1.0,-5.0,-10.0,-8.0,133.0,971.0,1121,1131.861170050801,-7.026782887813052,
21,0.5813078880310059,0.029011964797973633,34.46853761761926,36.125434442547764,101407.0,-3.0,135.0,969.0,-2.0,-31.1875,-55.875,0.1875,0.3125,0.3125,182.75,-0.5,-7.8125,0.0029296875,-0.06829833984375,-0.99737548828125,-0.02398681640625,5.0,2.0,-1.0,-8.0,133.0,971.0,1130,1131.488936040641,-7.60714079720791,
22,0.6054418087005615,0.024133920669555664,41.43545566806619,36.33710074832431,101407.0,-11.0,127.0,974.0,-0.0625,-31.5,-55.5,-0.25,2.4375,0.375,182.6875,-0.5625,-7.8125,0.00335693359375,-0.06842041015625,-0.99737548828125,-0.02392578125,0.0,-1.0,-22.0,-9.0,133.0,971.0,1112,1127.5911488325128,-22.997085624082242,
23,0.63230299949646,0.026861190795898438,37.228431442164315,36.37496582859207,101407.0,9.0,127.0,946.0,-0.0625,-31.5,-55.5,1.9375,-0.5,1.0,182.6875,-0.5625,-7.875,0.00335693359375,-0.06878662109375,-0.997314453125,-0.02374267578125,19.0,-6.0,-24.0,-9.0,134.0,971.0,1135,1129.0729190660104,-15.180978906593396,
24,0.6589629650115967,0.02665996551513672,37.5094258629941,36.42086319612459,101407.0,-9.0,133.0,945.0,-2.0,-31.875,-56.25,-0.375,2.3125,-0.375,182.6875,-0.5625,-7.875,0.00384521484375,-0.06878662109375,-0.997314453125,-0.0238037109375,1.0,0.0,-26.0,-10.0,134.0,971.0,1139,1131.0583352528083,-6.215698889345553,
25,0.6856179237365723,0.026654958724975586,37.51647152479003,36.463457465860365,101415.75,-5.0,134.0,960.0,-0.5,-30.75,-55.1875,-0.8125,-0.5,-0.25,182.6875,-0.625,-7.875,0.00384521484375,-0.06878662109375,-0.997314453125,-0.02386474609375,-1.0,-3.0,-8.0,-10.0,134.0,971.0,1116,1128.0466682022468,-16.89284111486499,
26,0.7145438194274902,0.02892589569091797,34.5710988757377,36.38685171307174,101415.75,23.0,135.0,955.0,-0.5,-30.75,-55.1875,-0.0625,-1.9375,1.1875,182.6875,-0.5625,-7.8125,0.00372314453125,-0.0687255859375,-0.99737548828125,-0.02374267578125,13.0,-2.0,-20.0,-10.0,134.0,971.0,1121,1126.6373345617974,-20.07577826666646,
27,0.7407848834991455,0.026241064071655273,38.108210752023844,36.447827974652704,101415.75,9.0,138.0,955.0,-2.0,-30.375,-56.6875,-0.9375,-1.3125,-1.0,182.6875,-0.5,-7.8125,0.0030517578125,-0.06866455078125,-0.99737548828125,-0.02374267578125,18.0,3.0,-16.0,-9.0,134.0,971.0,1135,1128.3098676494378,-11.694476100646344,
28,0.7677419185638428,0.026957035064697266,37.09606778341853,36.470589039058204,101415.75,-10.0,137.0,971.0,-2.0,-30.375,-56.6875,-2.3125,1.5,-1.8125,182.75,-0.5625,-7.75,0.00347900390625,-0.06787109375,-0.99737548828125,-0.024169921875,0.0,0.0,0.0,-9.0,133.0,971.0,1107,1124.0478941195504,-26.335274386165672,
29,0.7945077419281006,0.026765823364257812,37.36107746027221,36.50058831349232,101415.75,-10.0,133.0,985.0,-1.1875,-31.5,-55.1875,-2.0,-0.6875,-0.875,182.75,-0.5625,-7.6875,0.00341796875,-0.06756591796875,-0.9974365234375,-0.02435302734375,0.0,1.0,13.0,-9.0,131.0,971.0,1130,1125.2383152956404,-19.254205170524372,
30,0.8199257850646973,0.02541804313659668,39.342131674967874,36.588677349173516,101415.75,-2.0,134.0,972.0,-1.1875,-31.5,-55.1875,-0.8125,-0.9375,-0.6875,182.75,-0.5,-7.6875,0.00311279296875,-0.0672607421875,-0.9974365234375,-0.0244140625,6.0,3.0,0.0,-9.0,131.0,971.0,1148,1129.7906522365124,0.5810792821887709,
31,0.8504719734191895,0.030546188354492188,32.73730877302529,36.45034871092736,101415.75,0.0,134.0,977.0,-2.0,-31.1875,-57.1875,0.375,0.125,-1.875,182.8125,-0.5,-7.6875,0.0030517578125,-0.0672607421875,-0.9974365234375,-0.0247802734375,9.0,3.0,6.0,-9.0,131.0,971.0,1135,1130.83252178921,3.933771878757279,
32,0.8799059391021729,0.0294339656829834,33.97435502814791,36.36752359309195,101415.75,-10.0,130.0,995.0,-2.0,-31.1875,-57.1875,-0.75,1.75,-2.25,182.875,-0.5625,-7.625,0.00335693359375,-0.067138671875,-0.9974365234375,-0.025390625,0.0,0.0,23.0,-9.0,131.0,971.0,1135,1131.666017431368,6.37214237699026,
33,0.9067978858947754,0.02689194679260254,37.18585373205784,36.39179194538761,101415.75,-2.0,127.0,964.0,-0.875,-31.1875,-56.25,1.0,-0.0625,-1.625,182.9375,-0.5625,-7.6875,0.00341796875,-0.0673828125,-0.99737548828125,-0.02581787109375,7.0,-4.0,-7.0,-10.0,131.0,971.0,1126,1130.5328139450944,1.5210142303688423,
34,0.933182954788208,0.026385068893432617,37.90022319209882,36.43444174108016,101415.75,-8.0,129.0,971.0,-0.875,-30.75,-56.0,1.3125,-1.625,-1.0,183.0,-0.5,-7.75,0.00311279296875,-0.0677490234375,-0.99737548828125,-0.02618408203125,1.0,-2.0,0.0,-9.0,132.0,971.0,1130,1130.4262511560755,0.9650374585531465,
35,0.9575047492980957,0.024321794509887695,41.1153872545656,36.55334349584892,101415.75,7.0,134.0,964.0,-0.875,-30.75,-56.0,1.625,-1.4375,-0.75,183.0,-0.5,-7.75,0.00286865234375,-0.0679931640625,-0.997314453125,-0.02630615234375,16.0,1.0,-7.0,-9.0,132.0,971.0,1135,1131.3410009248605,4.629562811159738,
36,0.9842760562896729,0.02677130699157715,37.35342470633288,36.57510489049749,101415.75,-3.0,130.0,964.0,-1.1875,-31.5,-56.0,0.75,2.3125,-2.25,183.0625,-0.5625,-7.8125,0.003173828125,-0.0682373046875,-0.997314453125,-0.0267333984375,6.0,-2.0,-7.0,-9.0,133.0,971.0,1126,1130.2728007398885,0.17651301197930813,
37,1.013659954071045,0.02938389778137207,34.03224471580997,36.501392652833125,101415.75,-12.0,128.0,975.0,-1.1875,-31.5,-56.0,0.0,-0.25,-2.0625,183.125,-0.5625,-7.75,0.0032958984375,-0.0682373046875,-0.997314453125,-0.0272216796875,-1.0,-4.0,3.0,-10.0,133.0,971.0,1130,1130.2182405919107,-0.026818719989689238,
38,1.043238878250122,0.02957892417907715,33.80785568622394,36.42502287083026,101415.75,-23.0,128.0,974.0,-1.5625,-30.375,-55.1875,0.1875,2.5,-1.8125,183.125,-0.625,-7.75,0.00372314453125,-0.06817626953125,-0.997314453125,-0.027587890625,-12.0,-4.0,2.0,-10.0,133.0,971.0,1121,1128.3745924735285,-6.25711580023487,
39,1.0737569332122803,0.030518054962158203,32.76748800799987,36.321069316243246,101413.0,-18.0,127.0,957.0,-1.5625,-30.375,-55.1875,1.5,-1.0625,-0.875,183.1875,-0.625,-7.8125,0.00390625,-0.0684814453125,-0.99725341796875,-0.0279541015625,-6.0,-5.0,-13.0,-11.0,133.0,971.0,1134,1129.4996739788228,-1.9447947469362141,
40,1.1015679836273193,0.027811050415039062,35.956930251697415,36.31187597544841,101413.0,-6.0,129.0,958.0,-1.1875,-30.375,-55.1875,1.125,-3.25,-0.25,183.1875,-0.5625,-7.875,0.00323486328125,-0.06878662109375,-0.99725341796875,-0.028076171875,3.0,-4.0,-13.0,-10.0,134.0,971.0,1130,1129.5997391830583,-1.390511515310697,
41,1.1278867721557617,0.026318788528442383,37.995669858409805,36.35116663495889,101413.0,-12.0,126.0,962.0,-1.1875,-30.375,-55.1875,-0.5,1.3125,-0.6875,183.1875,-0.5625,-7.8125,0.00323486328125,-0.06878662109375,-0.99725341796875,-0.02813720703125,-1.0,-7.0,-9.0,-10.0,134.0,971.0,1135,1130.6797913464466,2.852270179216479,
42,1.1565899848937988,0.02870321273803711,34.839305590165296,36.313646623748475,101413.0,-2.0,130.0,952.0,-0.875,-30.75,-56.0,0.3125,1.125,0.3125,183.1875,-0.625,-7.8125,0.00384521484375,-0.06878662109375,-0.99725341796875,-0.02813720703125,8.0,-3.0,-18.0,-11.0,134.0,971.0,1116,1127.7438330771572,-7.661631573079646,
43,1.1860849857330322,0.0294950008392334,33.904050569472396,36.25372592793159,101413.0,-1.0,124.0,958.0,-2.375,-31.1875,-54.25,-0.25,-1.25,0.0625,183.1875,-0.5625,-7.8125,0.00347900390625,-0.0687255859375,-0.99725341796875,-0.02813720703125,8.0,-9.0,-12.0,-10.0,134.0,971.0,1121,1126.3950664617257,-11.468333569372206,
44,1.2127597332000732,0.026674747467041016,37.48863981695,36.28088795783028,101413.0,-11.0,121.0,966.0,-2.375,-31.1875,-54.25,-1.5,2.625,-0.3125,183.1875,-0.625,-7.8125,0.00396728515625,-0.068359375,-0.99725341796875,-0.0281982421875,0.0,-11.0,-4.0,-11.0,133.0,971.0,1135,1128.1160531693806,-3.8697551311316616,
45,1.2427499294281006,0.029990196228027344,33.344229974242374,36.210020161263245,101413.0,-9.0,132.0,966.0,-0.875,-31.1875,-55.5,0.8125,-0.75,0.5,183.1875,-0.625,-7.8125,0.0040283203125,-0.068359375,-0.99725341796875,-0.02813720703125,2.0,0.0,-4.0,-11.0,133.0,971.0,1135,1129.4928425355047,1.1080185069947013,
46,1.2723579406738281,0.02960801124572754,33.774642670209765,36.15334846390699,101413.0,-15.0,129.0,938.0,-0.875,-31.1875,-55.5,-1.125,2.25,0.25,183.1875,-0.6875,-7.8125,0.00421142578125,-0.068359375,-0.99725341796875,-0.028076171875,-3.0,-4.0,-33.0,-11.0,133.0,971.0,1135,1130.5942740284038,4.717262166133544,
47,1.3032610416412354,0.030903100967407227,32.35921214038282,36.063381393501565,101413.0,-1.0,130.0,931.0,0.25,-30.75,-57.5,-2.8125,4.1875,-0.1875,183.1875,-0.75,-7.75,0.0050048828125,-0.06787109375,-0.997314453125,-0.028076171875,12.0,-1.0,-39.0,-13.0,132.0,971.0,1130,1130.475419222723,3.8609311624275757,
48,1.3310589790344238,0.027797937393188477,35.973892086145824,36.06151249197097,101413.0,-12.0,120.0,948.0,0.25,-30.75,-57.5,-5.8125,7.875,-1.6875,183.1875,-0.875,-7.625,0.0062255859375,-0.0670166015625,-0.997314453125,-0.0281982421875,3.0,-9.0,-23.0,-15.0,130.0,971.0,1116,1127.5803353781785,-6.939905334214398,
49,1.3549940586090088,0.02393507957458496,41.77968144554791,36.16252018868758,101413.0,-49.0,103.0,934.0,-0.875,-30.75,-55.5,-1.6875,0.3125,0.0,183.25,-1.0,-7.5625,0.00689697265625,-0.06634521484375,-0.99737548828125,-0.0284423828125,-32.0,-26.0,-37.0,-17.0,129.0,971.0,1126,1127.2642683025429,-7.566432974341089,
50,1.3816840648651123,0.026690006256103516,37.46720740356958,36.1877228459469,101413.0,-8.0,100.0,894.0,-1.5625,-29.6875,-55.5625,-1.0,1.5,3.0,183.1875,-1.0,-7.5625,0.0069580078125,-0.066162109375,-0.99737548828125,-0.02789306640625,1.0,-29.0,-56.0,-16.0,129.0,971.0,1112,1124.2114146420345,-18.247979804008423,
51,1.4063489437103271,0.024664878845214844,40.54347910141902,36.264115124549576,101413.0,8.0,102.0,869.0,-1.5625,-29.6875,-55.5625,-1.1875,2.0,2.0625,183.125,-1.0,-7.5,0.0072021484375,-0.0660400390625,-0.9974365234375,-0.0274658203125,26.0,-26.0,-102.0,-17.0,128.0,972.0,1139,1127.1691317136276,-4.431567795602863,
52,1.434372901916504,0.028023958206176758,35.68375290324227,36.25277633906874,101411.5,-13.0,108.0,813.0,-0.875,-30.75,-56.0,-0.6875,5.625,0.0625,183.125,-1.125,-7.5,0.00811767578125,-0.06591796875,-0.9974365234375,-0.02728271484375,5.0,-19.0,-158.0,-19.0,128.0,972.0,1148,1131.335305370902,10.878060117775057,
53,1.4619998931884766,0.027626991271972656,36.196485898719324,36.25171263481577,101411.5,-14.0,94.0,760.0,-0.875,-30.75,-56.0,-6.25,8.5,-1.8125,183.125,-1.3125,-7.4375,0.00946044921875,-0.06549072265625,-0.9974365234375,-0.02728271484375,5.0,-23.0,-202.0,-22.0,127.0,972.0,1130,1131.0682442967218,8.823586865431437,
54,1.4856977462768555,0.023697853088378906,42.19791540907079,36.34655846744298,101411.5,-28.0,80.0,783.0,-0.5,-30.375,-55.5,-11.375,5.6875,-3.5625,183.1875,-1.5,-7.1875,0.01141357421875,-0.06329345703125,-0.99755859375,-0.02783203125,-2.0,-42.0,-188.0,-25.0,123.0,972.0,1144,1133.6545954373776,18.855090844042927,
55,1.5139639377593994,0.028266191482543945,35.377953220813616,36.32847429734529,101411.5,-34.0,76.0,857.0,-0.5,-30.375,-55.5,-18.9375,6.875,-3.375,183.25,-1.625,-6.6875,0.01287841796875,-0.05908203125,-0.99774169921875,-0.02862548828125,-5.0,-38.0,-116.0,-28.0,114.0,973.0,1121,1131.123676349902,8.015708051401498,
56,1.5436129570007324,0.029649019241333008,33.727928464018916,36.27852418964466,101411.5,-46.0,79.0,885.0,-0.875,-30.75,-56.75,-13.125,3.6875,-1.375,183.3125,-1.8125,-6.25,0.0147705078125,-0.0550537109375,-0.9979248046875,-0.029052734375,-14.0,-27.0,-88.0,-32.0,106.0,974.0,1107,1126.2989410799219,-9.058695358110896,
57,1.5716581344604492,0.028045177459716797,35.65675422936326,36.267429124825625,101411.5,5.0,113.0,843.0,-0.875,-30.75,-56.75,-5.9375,-9.0,0.3125,183.3125,-1.6875,-6.0,0.01336669921875,-0.0531005859375,-0.998046875,-0.029052734375,34.0,9.0,-131.0,-29.0,103.0,974.0,1079,1116.8391528639374,-41.88336017021811,
58,1.6006360054016113,0.02897787094116211,34.50909150746244,36.23559622816767,101411.5,-32.0,115.0,780.0,0.25,-28.875,-56.75,-7.625,2.0,-0.4375,183.3125,-1.625,-5.875,0.0128173828125,-0.05169677734375,-0.9981689453125,-0.0291748046875,-10.0,13.0,-167.0,-28.0,100.0,975.0,1088,1111.07132229115,-57.5992834567826,
59,1.6251609325408936,0.024524927139282227,40.7748408107714,36.30409691657746,101411.5,-10.0,106.0,781.0,0.25,-28.875,-56.75,-10.0625,5.0,0.625,183.3125,-1.6875,-5.625,0.01373291015625,-0.049560546875,-0.99822998046875,-0.029052734375,19.0,10.0,-193.0,-29.0,96.0,975.0,1074,1103.65705783292,-82.07090041243333,
60,1.6533987522125244,0.02823781967163086,35.41349904591432,36.288886706676145,101411.5,-36.0,95.0,813.0,-0.0625,-28.5,-56.75,-9.1875,9.6875,-1.5,183.3125,-1.9375,-5.3125,0.0159912109375,-0.04693603515625,-0.99835205078125,-0.02911376953125,-2.0,4.0,-162.0,-33.0,91.0,975.0,1036,1090.125646266336,-121.7832734314996,
61,1.682724952697754,0.029326200485229492,34.09920083250002,36.250725290668846,101411.5,-50.0,82.0,793.0,-0.0625,-28.5,-56.75,-3.875,3.625,1.4375,183.3125,-2.0625,-5.1875,0.0169677734375,-0.04620361328125,-0.99835205078125,-0.0289306640625,-14.0,-7.0,-182.0,-35.0,89.0,975.0,1065,1085.1005170130688,-126.7402352499922,
62,1.7102711200714111,0.027546167373657227,36.30269091286774,36.25156226540926,101411.5,-35.0,88.0,776.0,-0.0625,-28.5,-56.375,0.75,-5.25,5.3125,183.1875,-1.9375,-5.25,0.0159912109375,-0.0462646484375,-0.9984130859375,-0.02789306640625,50.0,7.0,-209.0,-33.0,89.0,975.0,1069,1081.8804136104552,-125.75605357824861,
63,1.7360789775848389,0.025807857513427734,38.74788906749441,36.28867166379895,101411.5,0.0,84.0,788.0,-0.0625,-28.5,-56.375,-1.5,-2.3125,3.375,183.0625,-1.875,-5.25,0.01531982421875,-0.0462646484375,-0.9984130859375,-0.0272216796875,21.0,-12.0,-170.0,-32.0,89.0,976.0,1013,1068.104330888364,-166.5598607304451,
64,1.768625020980835,0.032546043395996094,30.72570105781346,36.18630248966353,101411.5,-13.0,83.0,811.0,0.25,-29.25,-56.75,-2.0625,4.375,3.375,183.0,-1.9375,-5.125,0.01617431640625,-0.04547119140625,-0.99847412109375,-0.02618408203125,23.0,0.0,-143.0,-33.0,88.0,976.0,1022,1058.8834647106914,-178.23563242432783,
65,1.795922040939331,0.027297019958496094,36.63403556580372,36.193107784346076,101411.5,4.0,98.0,845.0,-0.0625,-28.375,-56.25,2.375,3.0,3.5625,182.875,-2.0,-5.1875,0.01678466796875,-0.04571533203125,-0.99847412109375,-0.02557373046875,39.0,10.0,-130.0,-35.0,88.0,976.0,980,1043.1067717685532,-218.20846221720058,
66,1.823664903640747,0.027742862701416016,36.0453068871281,36.19085933399181,101415.5,-12.0,94.0,800.0,-0.0625,-28.375,-56.25,8.6875,-6.125,0.375,182.8125,-1.875,-5.4375,0.01544189453125,-0.04827880859375,-0.9984130859375,-0.02496337890625,-2.0,-5.0,-173.0,-32.0,93.0,975.0,,1043.1067717685532,-218.20846221720058,
67,1.851963996887207,0.02829909324645996,35.3368212645857,36.1778091326905,101415.5,-50.0,83.0,824.0,-0.5,-29.1875,-55.1875,7.9375,-5.75,0.6875,182.8125,-1.6875,-5.6875,0.013916015625,-0.0501708984375,-0.99835205078125,-0.0250244140625,-21.0,-13.0,-168.0,-31.0,95.0,975.0,910,1016.4854174148427,-290.4590200573076,
68,1.87553071975708,0.023566722869873047,42.43271351395099,36.25640427196383,101415.5,9.0,93.0,850.0,-0.5,-29.1875,-55.1875,7.5625,0.75,-1.0625,182.875,-1.6875,-5.8125,0.01361083984375,-0.051513671875,-0.998291015625,-0.02508544921875,28.0,-3.0,-136.0,-29.0,100.0,975.0,896,992.3883339318743,-363.6635820470327,
69,1.907458782196045,0.031928062438964844,31.320409809134084,36.173782964033826,101415.5,-42.0,84.0,821.0,-0.5,-29.875,-56.25,2.75,-1.1875,-2.5625,182.9375,-1.6875,-6.0,0.013916015625,-0.05291748046875,-0.9981689453125,-0.02581787109375,-19.0,-25.0,-119.0,-29.0,102.0,974.0,859,965.7106671454994,-410.852769492408,
70,1.9346137046813965,0.027154922485351562,36.82573575893798,36.18293400414426,101415.5,-31.0,80.0,879.0,-0.5,-29.875,-56.25,3.6875,-3.1875,0.125,182.9375,-1.6875,-6.0625,0.013427734375,-0.05340576171875,-0.9981689453125,-0.02593994140625,-2.0,-23.0,-95.0,-28.0,103.0,974.0,850,942.5685337163995,-454.990101598979,
71,1.959758996963501,0.025145292282104492,39.76887557245394,36.228944533490676,101415.5,-37.0,81.0,856.0,-0.0625,-29.875,-56.375,5.5625,-3.5625,1.5625,182.9375,-1.5625,-6.1875,0.0123291015625,-0.05474853515625,-0.99810791015625,-0.0257568359375,-10.0,-25.0,-117.0,-26.0,106.0,974.0,855,925.0548269731197,-479.1411338676755,
72,1.9885220527648926,0.0287630558013916,34.76682056680565,36.20779558360408,101415.5,-42.0,85.0,864.0,0.25,-30.25,-55.5625,-0.625,5.4375,2.3125,182.875,-1.5625,-6.25,0.01275634765625,-0.05511474609375,-0.99810791015625,-0.025146484375,-14.0,-21.0,-110.0,-27.0,107.0,974.0,798,899.6438615784958,-519.5728679113275,
73,2.0187790393829346,0.030256986618041992,33.050217876082485,36.16047054972068,101415.5,-88.0,75.0,944.0,0.25,-30.25,-55.5625,-10.8125,10.875,2.25,182.8125,-2.0,-6.0,0.0162353515625,-0.05279541015625,-0.9981689453125,-0.0245361328125,-53.0,-26.0,-30.0,-34.0,102.0,974.0,719,863.5150892627967,-587.0219607831183,
74,2.048332929611206,0.029553890228271484,33.83649300569548,36.12693958596171,101415.5,-14.0,103.0,1037.0,-0.5,-30.6875,-56.75,-7.5625,-4.6875,8.3125,182.625,-1.9375,-5.8125,0.0159912109375,-0.0513916015625,-0.998291015625,-0.02337646484375,18.0,3.0,62.0,-33.0,99.0,974.0,719,834.6120714102374,-626.1174408459678,
75,2.0745270252227783,0.026194095611572266,38.17654233338794,36.152818974217,101415.5,-18.0,101.0,1048.0,-0.5,-30.6875,-56.75,-4.875,1.375,5.625,182.375,-1.8125,-5.625,0.0150146484375,-0.04949951171875,-0.9984130859375,-0.02081298828125,-32.0,-7.0,57.0,-31.0,96.0,975.0,681,803.88965712819,-680.7932517036173,
76,2.100994825363159,0.02646780014038086,37.781757255841605,36.17333992570082,101415.5,-57.0,105.0,1044.0,-0.5,-30.6875,-56.25,-9.625,-7.625,9.625,182.125,-1.6875,-5.375,0.01422119140625,-0.04736328125,-0.99859619140625,-0.01885986328125,8.0,16.0,111.0,-29.0,92.0,975.0,663,775.7117257025521,-719.1751030427758,
77,2.128769874572754,0.027775049209594727,36.00353657175721,36.17112442248084,101415.5,32.0,114.0,1226.0,-0.5,-30.6875,-56.25,-16.8125,-5.5625,10.625,181.9375,-1.5625,-5.125,0.01287841796875,-0.044921875,-0.998779296875,-0.01702880859375,58.0,26.0,250.0,-26.0,87.0,976.0,611,742.7693805620418,-765.8616855410796,
78,2.156810760498047,0.02804088592529297,35.66221133897901,36.164507998832676,101415.5,14.0,128.0,1336.0,0.5625,-31.0625,-55.5625,-20.5,6.8125,4.375,181.75,-1.6875,-4.5,0.0145263671875,-0.03985595703125,-0.99896240234375,-0.0157470703125,19.0,53.0,375.0,-29.0,77.0,977.0,626,719.4155044496334,-772.5606035374756,
79,2.1848840713500977,0.02807331085205078,35.62102116384143,36.15752480230395,101415.5,-100.0,99.0,1400.0,0.5625,-31.0625,-55.5625,-19.125,17.3125,-3.5625,181.8125,-2.0,-4.125,0.017333984375,-0.03662109375,-0.9990234375,-0.01611328125,-65.0,28.0,423.0,-35.0,71.0,977.0,602,695.9324035597067,-778.9537465629984,
80,2.21291184425354,0.028027772903442383,35.678896195037304,36.1514627018437,101420.75,-50.0,121.0,1490.0,-1.5625,-30.6875,-54.6875,-10.0625,7.5625,10.3125,181.5625,-2.375,-3.625,0.02056884765625,-0.0323486328125,-0.9991455078125,-0.013671875,31.0,89.0,512.0,-41.0,62.0,977.0,583,673.3459228477655,-781.644441979955,
81,2.2425177097320557,0.029605865478515625,33.777090581110684,36.12011608580705,101420.75,-21.0,152.0,1654.0,-0.5,-29.5625,-56.25,-14.875,-5.75,12.3125,181.25,-2.25,-3.4375,0.0196533203125,-0.0303955078125,-0.999267578125,-0.0113525390625,17.0,93.0,676.0,-39.0,59.0,978.0,630,664.6767382782124,-732.7619810289756,
82,2.268096923828125,0.025579214096069336,39.09424254569519,36.153657781784425,101420.75,-63.0,95.0,1772.0,-0.5,-29.5625,-56.25,-21.875,13.5625,3.625,181.125,-2.625,-2.8125,0.02301025390625,-0.0252685546875,-0.9993896484375,-0.01025390625,-18.0,46.0,794.0,-45.0,49.0,978.0,640,659.74139062257,-678.7801507557793,
83,2.2949860095977783,0.02688908576965332,37.18981034039422,36.165797810047074,101420.75,-73.0,91.0,1774.0,-0.5,-29.5625,-56.25,-23.625,27.75,-0.9375,181.1875,-3.1875,-2.375,0.02813720703125,-0.0213623046875,-0.99932861328125,-0.0103759765625,-18.0,50.0,795.0,-55.0,41.0,978.0,626,652.993112498056,-635.9988540376919,
84,2.324069023132324,0.0290830135345459,34.38433224301747,36.143504845990684,101420.75,-33.0,108.0,1928.0,-0.5,-29.5625,-56.25,-9.3125,-10.625,5.6875,181.0,-3.1875,-1.9375,0.02777099609375,-0.016845703125,-0.99945068359375,-0.00872802734375,46.0,41.0,989.0,-54.0,32.0,978.0,583,638.9944899984448,-620.5322973310439,
85,2.350564956665039,0.026495933532714844,37.741640571572546,36.16151928028284,101420.75,38.0,127.0,2061.0,1.375,-28.375,-58.0,-21.875,26.5625,1.9375,180.9375,-3.25,-1.75,0.0286865234375,-0.015869140625,-0.99945068359375,-0.00848388671875,76.0,97.0,1046.0,-56.0,30.0,978.0,602,631.5955919987558,-586.4037224909384,
86,2.3783979415893555,0.027832984924316406,35.92859345554223,36.15879348706921,101420.75,-321.0,-9.0,2412.0,1.375,-28.375,-58.0,-33.3125,19.875,-18.3125,181.25,-4.3125,-0.625,0.0380859375,-0.00604248046875,-0.99920654296875,-0.01141357421875,-246.0,-20.0,1434.0,-74.0,10.0,977.0,616,628.4764735990047,-538.9699039342804,
87,2.406693935394287,0.02829599380493164,35.34069193306483,36.149174899444304,101420.75,-292.0,48.0,2289.0,1.0,-27.6875,-56.375,-2.875,-2.5,-5.0625,181.4375,-4.375,-0.375,0.03814697265625,-0.004638671875,-0.99920654296875,-0.01239013671875,-217.0,40.0,1311.0,-74.0,8.0,977.0,662,635.1811788792038,-461.3780211599016,
88,2.432554006576538,0.025860071182250977,38.669653805375006,36.175969685395415,101420.75,-68.0,98.0,2181.0,1.0,-27.6875,-56.375,25.875,5.0,22.875,181.0,-4.375,-0.9375,0.03857421875,-0.00872802734375,-0.99920654296875,-0.0091552734375,7.0,81.0,1204.0,-75.0,16.0,977.0,723,652.7449431033631,-347.3217508371644,
89,2.4623167514801025,0.029762744903564453,33.599051540445714,36.144821719830304,101420.75,-1.0,-35.0,2173.0,0.5625,-26.5625,-57.5,3.4375,10.0,0.125,180.75,-4.625,-1.4375,0.0418701171875,-0.01220703125,-0.9990234375,-0.007568359375,-3.0,-124.0,1263.0,-82.0,23.0,976.0,822,686.5959544826904,-198.85338815042456,
90,2.490025043487549,0.02770829200744629,36.09027939113899,36.144214788275896,101420.75,-217.0,-158.0,2404.0,1.0625,-26.875,-57.5,-20.625,26.4375,-20.8125,181.1875,-5.25,-0.9375,0.0460205078125,-0.0086669921875,-0.99884033203125,-0.01068115234375,-127.0,-174.0,1428.0,-90.0,15.0,976.0,896,728.4767635861524,-27.819039168292193,
91,2.5193989276885986,0.029373884201049805,34.043846334910675,36.119726415652316,101420.75,-302.0,-174.0,1858.0,1.0625,-26.875,-57.5,10.25,13.3125,-9.9375,181.6875,-5.875,-0.75,0.05157470703125,-0.00762939453125,-0.99853515625,-0.0147705078125,-201.0,-188.0,883.0,-101.0,13.0,975.0,971,776.981410868922,140.09134061090214,
92,2.5442659854888916,0.02486705780029297,40.21384467881112,36.15974136537529,101420.75,-34.0,-192.0,1380.0,4.0625,-24.375,-57.875,30.75,-39.0,18.25,181.5,-5.4375,-1.3125,0.04742431640625,-0.01220703125,-0.99871826171875,-0.01312255859375,58.0,-214.0,404.0,-93.0,22.0,975.0,1046,830.7851286951377,342.4476417304138,
93,2.5722458362579346,0.02797985076904297,35.740004771805445,36.15517564032489,101418.25,267.0,-87.0,650.0,4.0625,-24.375,-57.875,39.625,-75.625,0.8125,181.125,-3.1875,-2.375,0.0244140625,-0.0238037109375,-0.99932861328125,-0.012451171875,137.0,-217.0,-571.0,-48.0,46.0,978.0,1139,892.4281029561103,528.5148969809163,
94,2.60123872756958,0.028992891311645508,34.491213354714034,36.13662944647421,101418.25,-168.0,-90.0,233.0,0.25,-24.75,-58.25,-16.25,11.75,-49.0,182.3125,-2.875,-2.5625,0.0250244140625,-0.02288818359375,-0.99920654296875,-0.02032470703125,-118.0,-134.0,-744.0,-50.0,43.0,978.0,1242,962.3424823648883,716.8065849578836,
95,2.625802755355835,0.024564027786254883,40.70993603742635,36.17941210787026,101418.25,-417.0,78.0,263.0,0.25,-24.75,-58.25,-27.6875,-5.1875,-63.25,183.9375,-3.0,-1.75,0.02587890625,-0.0162353515625,-0.9989013671875,-0.0347900390625,-365.0,48.0,-715.0,-51.0,30.0,978.0,1303,1030.4739858919106,922.4888415339722,
96,2.6577308177948,0.031928062438964844,31.320409809134084,36.12103955646423,101418.25,-213.0,277.0,571.0,1.0,-25.0625,-58.0,-23.875,25.3125,2.25,184.875,-3.5,-0.6875,0.03057861328125,-0.0078125,-0.99859619140625,-0.0428466796875,-153.0,264.0,-411.0,-56.0,16.0,978.0,1382,1100.7791887135286,1050.4387337893115,
97,2.682111978530884,0.024381160736083984,41.01527449101328,36.16552954404661,101418.25,560.0,207.0,170.0,1.0,-25.0625,-58.0,59.1875,-14.5625,87.625,183.5,-3.4375,-1.5,0.0299072265625,-0.0140380859375,-0.99896240234375,-0.031005859375,620.0,181.0,-808.0,-59.0,25.0,978.0,1391,1158.823350970823,1183.4645851687646,
98,2.7117629051208496,0.02965092658996582,33.72575885498332,36.138852631599306,101418.25,432.0,-76.0,-829.0,2.1875,-21.75,-59.1875,94.3125,-36.5,14.125,181.875,-2.375,-4.3125,0.02020263671875,-0.0382080078125,-0.9989013671875,-0.0164794921875,473.0,-150.0,-1806.0,-40.0,74.0,977.0,1429,1212.8586807766585,1247.3563769199984,
99,2.7396397590637207,0.027876853942871094,35.872053641681774,36.13613785260348,101418.25,-558.0,36.0,19.0,-0.375,-24.75,-58.75,-11.5,10.6875,-58.3125,183.5,-2.3125,-4.75,0.019287109375,-0.04248046875,-0.9984130859375,-0.03094482421875,-518.0,-45.0,-956.0,-40.0,81.0,976.0,1369,1244.086944621327,1234.6429348052523,
100,2.7673208713531494,0.02768111228942871,36.12571595910528,36.136033603903165,101418.25,-161.0,-38.0,-88.0,-0.375,-24.75,-58.75,30.5,-0.875,5.9375,183.9375,-2.5,-5.0,0.02044677734375,-0.04461669921875,-0.9981689453125,-0.0345458984375,-118.0,-124.0,-1064.0,-43.0,86.0,975.0,1475,1290.2695556970616,1278.0166303219094,
101,2.7921829223632812,0.024862051010131836,40.221943056607756,36.17241520642008,101418.25,-35.0,-80.0,-339.0,0.375,-25.375,-56.25,48.0,1.625,15.1875,183.6875,-2.4375,-5.9375,0.02001953125,-0.05255126953125,-0.9979248046875,-0.03228759765625,6.0,-182.0,-1313.0,-42.0,101.0,974.0,1480,1328.2156445576493,1302.841509826872,
102,2.8216989040374756,0.029515981674194336,33.8799505650288,36.14843520478091,101418.25,-229.0,-132.0,-183.0,0.375,-25.375,-56.25,5.375,5.125,0.375,183.5625,-2.5625,-6.5625,0.02069091796875,-0.058349609375,-0.99761962890625,-0.03125,-185.0,-244.0,-1156.0,-44.0,112.0,973.0,1536,1369.7725156461195,1313.3518326556493,
103,2.8501899242401123,0.02849102020263672,35.098778242677824,36.137942641650724,101418.25,-126.0,-95.0,10.0,2.5625,-27.6875,-55.375,-0.8125,-5.5,23.1875,183.125,-2.4375,-6.5,0.02020263671875,-0.05755615234375,-0.99774169921875,-0.02764892578125,-83.0,-206.0,-962.0,-42.0,111.0,973.0,1555,1406.8180125168956,1312.041817345803,
104,2.8751678466796875,0.024977922439575195,40.03535531904739,36.171801281132744,101418.25,164.0,-86.0,-65.0,2.5625,-27.6875,-55.375,15.0,-3.0625,34.5625,182.1875,-2.1875,-6.9375,0.01812744140625,-0.06085205078125,-0.997802734375,-0.01922607421875,202.0,-204.0,-1037.0,-37.0,118.0,972.0,1574,1440.2544100135165,1314.7014410478353,
105,2.900502920150757,0.025335073471069336,39.47097296330802,36.20061861359633,101418.25,172.0,-37.0,-50.0,1.0625,-26.875,-56.1875,12.0625,-0.75,19.0,181.8125,-2.125,-7.1875,0.01776123046875,-0.06298828125,-0.99774169921875,-0.01605224609375,209.0,-160.0,-1022.0,-36.0,122.0,972.0,1536,1459.4035280108133,1258.8147288173016,
106,2.9293649196624756,0.02886199951171875,34.64763415278879,36.18531760536459,101418.25,27.0,-2.0,44.0,1.0625,-26.875,-56.1875,-4.5625,25.9375,-1.3125,181.625,-2.5,-7.1875,0.02105712890625,-0.0633544921875,-0.9976806640625,-0.0146484375,70.0,-126.0,-927.0,-43.0,123.0,971.0,1522,1471.9228224086507,1176.3096491503045,
107,2.9580068588256836,0.028641939163208008,34.91383716381011,36.173006049917866,101403.0,42.0,-12.0,0.0,0.0,-26.875,-55.75,4.875,28.4375,-2.5,181.6875,-3.4375,-7.25,0.029541015625,-0.06365966796875,-0.9974365234375,-0.01507568359375,102.0,-136.0,-971.0,-59.0,123.0,971.0,1532,1483.9382579269206,1100.6291801489874,
108,2.982621908187866,0.024615049362182617,40.625553306277425,36.2097521323502,101403.0,130.0,-29.0,62.0,0.6875,-28.375,-56.5625,18.625,-8.25,-7.1875,181.8125,-3.3125,-7.6875,0.02838134765625,-0.06793212890625,-0.99725341796875,-0.01611328125,187.0,-134.0,-967.0,-58.0,128.0,970.0,1471,1481.3506063415366,980.0537843920795,
109,3.010941982269287,0.0283200740814209,35.31064209524932,36.201295356029696,101403.0,43.0,-53.0,34.0,0.6875,-28.375,-56.5625,17.4375,2.0,-10.9375,182.0,-3.3125,-8.0625,0.02789306640625,-0.0709228515625,-0.9969482421875,-0.017822265625,100.0,-190.0,-935.0,-56.0,137.0,969.0,1336,1452.2804850732293,779.3999411758023,
110,3.0400338172912598,0.029091835021972656,34.37390591706278,36.183808013692605,101403.0,10.0,-60.0,117.0,1.0625,-28.375,-55.375,16.75,10.0625,-13.3125,182.375,-3.6875,-8.4375,0.03076171875,-0.07464599609375,-0.99652099609375,-0.0208740234375,73.0,-205.0,-850.0,-63.0,144.0,967.0,1429,1447.6243880585835,685.4551229860067,
111,3.0653598308563232,0.025326013565063477,39.48509296305013,36.211083241405824,101403.0,-43.0,-53.0,58.0,1.0625,-28.375,-55.375,11.0,3.5625,-7.625,182.6875,-3.9375,-8.8125,0.03265380859375,-0.0777587890625,-0.99615478515625,-0.0234375,23.0,-204.0,-908.0,-67.0,150.0,966.0,1391,1436.2995104468669,572.1932261580265,
112,3.0946388244628906,0.029278993606567383,34.15417939008998,36.191622464840904,101403.0,-92.0,31.0,345.0,2.1875,-30.6875,-56.1875,-0.5,20.625,-7.6875,182.875,-4.3125,-8.875,0.03594970703125,-0.07818603515625,-0.9959716796875,-0.025146484375,-18.0,-119.0,-620.0,-74.0,150.0,966.0,1294,1407.8396083574935,417.7714434037384,
113,3.1200997829437256,0.02546095848083496,39.275819123334365,36.21679044296068,101403.0,-164.0,38.0,333.0,2.1875,-30.6875,-56.1875,12.9375,21.3125,5.5,182.8125,-4.75,-9.0625,0.03973388671875,-0.07989501953125,-0.9957275390625,-0.02471923828125,-83.0,-115.0,-631.0,-81.0,154.0,965.0,1247,1375.671686685995,249.65215174902806,
114,3.144930839538574,0.024831056594848633,40.272148556395166,36.24880985196041,101403.0,-43.0,154.0,444.0,3.6875,-31.0625,-55.0625,15.25,-19.0,29.375,182.1875,-4.5,-9.625,0.0380859375,-0.08477783203125,-0.9954833984375,-0.01934814453125,34.0,-9.0,-519.0,-77.0,164.0,963.0,1219,1344.337349348796,98.49682775813736,
115,3.1722090244293213,0.02727818489074707,36.65933067046577,36.25233996700089,101403.0,397.0,446.0,1106.0,3.6875,-31.0625,-55.0625,-0.5625,-27.8125,13.5625,181.5625,-3.5,-9.875,0.02960205078125,-0.08636474609375,-0.9957275390625,-0.01361083984375,458.0,278.0,141.0,-60.0,167.0,964.0,1126,1300.6698794790368,-71.43487676748632,
116,3.199673891067505,0.027464866638183594,36.41015313031703,36.25369457926195,101403.0,357.0,410.0,1137.0,3.0,-32.0625,-55.0,-43.5625,7.25,-34.1875,181.9375,-3.5625,-9.1875,0.03009033203125,-0.0809326171875,-0.99609375,-0.01690673828125,281.0,200.0,386.0,-61.0,157.0,966.0,1004,1241.3359035832295,-280.3273039104259,
117,3.2258079051971436,0.026134014129638672,38.26430930355612,36.26998365634224,101403.0,-773.0,-225.0,2726.0,3.0,-32.0625,-55.0,-106.625,115.1875,-71.0,183.75,-5.75,-6.1875,0.0487060546875,-0.055908203125,-0.9967041015625,-0.0328369140625,-674.0,-331.0,1756.0,-98.0,106.0,969.0,897,1172.4687228665837,-515.8100838999466,
118,3.253757953643799,0.027950048446655273,35.77811329767724,36.26575844950448,101403.0,-668.0,25.0,2311.0,1.875,-32.0625,-54.5625,-23.8125,-9.9375,24.625,183.875,-7.4375,-4.75,0.06396484375,-0.04351806640625,-0.99639892578125,-0.03411865234375,-541.0,-55.0,1342.0,-127.0,80.0,968.0,897,1117.374978293267,-661.3440990436932,
119,3.2796177864074707,0.025859832763671875,38.67001032600679,36.28471600965243,101403.0,-89.0,270.0,2249.0,1.875,-32.0625,-54.5625,1.625,-40.25,43.25,183.0625,-6.5625,-4.8125,0.05645751953125,-0.0433349609375,-0.9970703125,-0.0269775390625,23.0,188.0,1278.0,-112.0,81.0,970.0,836,1061.0999826346138,-812.8251554609351,
120,3.307736873626709,0.02811908721923828,35.56303205019501,36.278580970809855,101403.0,-146.0,424.0,1864.0,5.875,-29.875,-55.75,-3.3125,26.5625,6.0,182.5625,-6.6875,-4.8125,0.05767822265625,-0.04364013671875,-0.99713134765625,-0.02264404296875,-31.0,342.0,894.0,-114.0,82.0,970.0,813,1011.479986107691,-908.0063925965934,
121,3.3354098796844482,0.027673006057739258,36.13629823639387,36.277400488916044,101401.5,-354.0,391.0,1693.0,5.875,-29.875,-55.75,16.75,20.25,6.1875,182.4375,-7.1875,-5.0625,0.06182861328125,-0.04541015625,-0.996826171875,-0.021728515625,-231.0,305.0,724.0,-123.0,90.0,968.0,841,977.3839888861529,-940.41606576341,
122,3.3630080223083496,0.027598142623901367,36.23432249146905,36.27704697423228,101401.5,-248.0,265.0,1033.0,5.1875,-29.1875,-57.375,57.9375,-40.25,34.4375,181.625,-6.375,-6.9375,0.0550537109375,-0.06109619140625,-0.99652099609375,-0.014404296875,-139.0,148.0,66.0,-109.0,117.0,967.0,836,949.1071911089224,-948.8335201556915,
123,3.388859987258911,0.025851964950561523,38.68177919598639,36.295391507009086,101401.5,-143.0,226.0,976.0,5.1875,-29.1875,-57.375,49.25,-39.3125,38.375,181.3125,-5.9375,-7.4375,0.051513671875,-0.06536865234375,-0.9964599609375,-0.0115966796875,-41.0,99.0,9.0,-102.0,126.0,967.0,831,925.485752887138,-945.3220938987921,
124,3.4188408851623535,0.029980897903442383,33.35457140812253,36.26960252469062,101401.5,-125.0,249.0,1246.0,5.5625,-30.25,-55.375,-2.375,8.5,0.0,180.6875,-5.625,-8.0,0.04901123046875,-0.0699462890625,-0.996337890625,-0.00634765625,-28.0,113.0,280.0,-96.0,136.0,966.0,775,895.3886023097104,-951.1776403204952,
125,3.4475619792938232,0.028721094131469727,34.817615074918024,36.25750624666194,101401.5,-223.0,199.0,1348.0,3.6875,-33.25,-54.1875,-1.375,-6.0,3.625,180.6875,-5.5625,-7.9375,0.04852294921875,-0.0697021484375,-0.99639892578125,-0.006103515625,-100.0,8.0,363.0,-93.0,135.0,966.0,723,860.9108818477685,-976.1030762588979,
126,3.4755947589874268,0.028032779693603516,35.67252377145385,36.25278800820514,101401.5,-30.0,104.0,1422.0,3.6875,-33.25,-54.1875,-35.125,-3.25,4.5,180.3125,-5.0625,-7.375,0.04425048828125,-0.06475830078125,-0.99688720703125,-0.0030517578125,95.0,-5.0,585.0,-86.0,126.0,968.0,756,839.9287054782149,-953.3414871649819,
127,3.503473997116089,0.02787923812866211,35.86898592368345,36.24973386545498,101401.5,-115.0,119.0,1925.0,3.0,-31.75,-53.75,0.8125,3.0625,-0.625,180.3125,-5.375,-6.1875,0.04693603515625,-0.05438232421875,-0.9974365234375,-0.0028076171875,-47.0,-11.0,842.0,-92.0,106.0,970.0,695,810.942964382572,-961.9762523831985,
128,3.5405209064483643,0.03704690933227539,26.99280501460878,36.15287224172949,101401.5,-137.0,125.0,1638.0,3.0,-31.75,-53.75,21.8125,-4.125,2.625,180.25,-5.3125,-6.4375,0.04656982421875,-0.0562744140625,-0.997314453125,-0.002685546875,-46.0,15.0,667.0,-91.0,109.0,970.0,733,795.3543715060576,-907.8566119416657,
129,3.5692250728607178,0.028704166412353516,34.838148080469125,36.14229906118167,101401.5,-57.0,174.0,1179.0,1.875,-31.75,-55.0,-1.6875,-26.625,-6.25,180.3125,-4.375,-7.0625,0.03814697265625,-0.06207275390625,-0.997314453125,-0.003173828125,19.0,77.0,213.0,-75.0,121.0,970.0,742,784.6834972048462,-854.246300652867,
130,3.5975561141967773,0.02833104133605957,35.29697296114585,36.13564205072169,101401.5,-167.0,150.0,1422.0,2.5625,-31.375,-55.375,-30.6875,11.4375,-17.0625,180.625,-4.4375,-6.5625,0.03863525390625,-0.0576171875,-0.99755859375,-0.0054931640625,-91.0,37.0,450.0,-76.0,112.0,971.0,766,780.946797763877,-782.011088500762,
131,3.6266860961914062,0.029129981994628906,34.328891798985104,36.121130013863265,101401.5,-173.0,166.0,1438.0,2.5625,-31.375,-55.375,-13.0625,-6.5625,-4.0,180.9375,-4.875,-5.625,0.0426025390625,-0.0496826171875,-0.997802734375,-0.008544921875,-70.0,76.0,423.0,-84.0,96.0,972.0,813,787.3574382111017,-681.8029614231887,
132,3.6533467769622803,0.026660680770874023,37.50841955590531,36.13125390460651,101401.5,-125.0,187.0,1292.0,1.0625,-30.6875,-54.5625,-11.4375,-22.4375,2.9375,180.9375,-4.25,-5.375,0.03680419921875,-0.04718017578125,-0.9981689453125,-0.00836181640625,-49.0,77.0,311.0,-72.0,91.0,973.0,770,783.8859505688814,-626.6436667776236,
133,3.6806070804595947,0.027260303497314453,36.68337735486015,36.1353431900132,101401.5,-113.0,178.0,1352.0,1.0625,-30.6875,-54.5625,-19.875,-7.1875,5.5625,180.8125,-4.0,-5.0,0.03509521484375,-0.04400634765625,-0.9984130859375,-0.00750732421875,-43.0,93.0,378.0,-69.0,85.0,974.0,827,792.5087604551052,-532.3479212083047,
134,3.7089388370513916,0.028331756591796875,35.296081863471116,36.128932259915636,101405.75,-42.0,176.0,1332.0,1.5,-29.875,-56.5625,-4.5625,1.375,3.8125,180.6875,-3.9375,-4.6875,0.03466796875,-0.041259765625,-0.99853515625,-0.006103515625,53.0,103.0,292.0,-68.0,80.0,974.0,798,793.6070083640842,-475.2367442773033,
135,3.7387759685516357,0.02983713150024414,33.51528614578173,36.10807417602442,101405.75,-106.0,151.0,1050.0,1.875,-29.5625,-57.0,-4.4375,-25.75,5.125,180.625,-3.625,-4.625,0.031494140625,-0.040771484375,-0.9986572265625,-0.0054931640625,-44.0,71.0,74.0,-62.0,79.0,975.0,808,796.4856066912674,-418.0653651861415,
136,3.7750778198242188,0.03630185127258301,27.546804500167475,36.02574741262755,101405.75,-16.0,141.0,1255.0,1.875,-29.5625,-57.0,-5.9375,0.3125,5.8125,180.3125,-2.8125,-4.3125,0.02471923828125,-0.03765869140625,-0.99896240234375,-0.00286865234375,29.0,63.0,240.0,-48.0,73.0,976.0,827,802.588485353014,-359.4473481291897,
137,3.8044040203094482,0.029326200485229492,34.09920083250002,36.01089665257385,101405.75,-69.0,113.0,1036.0,0.375,-29.1875,-55.75,10.4375,-4.1875,5.0625,180.1875,-2.875,-4.4375,0.02520751953125,-0.0390625,-0.9989013671875,-0.001708984375,1.0,31.0,0.0,-49.0,76.0,976.0,864,814.8707882824112,-281.62094188875875,
138,3.8321218490600586,0.02771782875061035,36.077861978203465,36.0113810143716,101405.75,-30.0,110.0,900.0,0.375,-29.1875,-55.75,10.5,-16.4375,5.75,180.0625,-2.5625,-4.6875,0.02276611328125,-0.041015625,-0.9989013671875,-0.00091552734375,14.0,29.0,-75.0,-44.0,80.0,976.0,943,840.496630625929,-161.00628738541926,
139,3.8599228858947754,0.027801036834716797,35.96988148122738,36.01108211460504,101405.75,-22.0,99.0,836.0,0.375,-28.75,-56.5625,9.0,-20.1875,6.0,179.9375,-2.0,-4.9375,0.017822265625,-0.0430908203125,-0.9989013671875,0.000244140625,12.0,10.0,-159.0,-34.0,84.0,976.0,938,859.9973045007433,-74.76196583876353,
140,3.8867788314819336,0.026855945587158203,37.23570249107793,36.01954370699848,101405.75,-8.0,107.0,810.0,0.0,-27.25,-57.0,-3.3125,6.5,-2.4375,179.9375,-1.9375,-4.875,0.01641845703125,-0.04327392578125,-0.9989013671875,0.00042724609375,57.0,26.0,-143.0,-32.0,84.0,976.0,1022,892.3978436005947,53.359914192373125,
141,3.9139609336853027,0.02718210220336914,36.7889132532234,36.024886908423326,101405.75,-66.0,74.0,789.0,0.0,-27.25,-57.0,-8.4375,14.1875,-2.1875,179.9375,-2.3125,-4.6875,0.020263671875,-0.04119873046875,-0.99896240234375,0.00018310546875,-4.0,1.0,-169.0,-39.0,80.0,976.0,1051,924.1182748804758,164.719942244174,
142,3.943363904953003,0.029402971267700195,34.0101682546118,36.00986452750227,101405.75,-10.0,85.0,804.0,-0.375,-27.6875,-57.0,2.0,3.4375,3.875,179.875,-2.375,-4.6875,0.0211181640625,-0.04119873046875,-0.9989013671875,0.0008544921875,31.0,4.0,-171.0,-41.0,80.0,976.0,1097,958.6946199043807,265.84267920900805,
143,3.970820903778076,0.027456998825073242,36.420586473085976,36.01270454276627,101405.75,24.0,101.0,716.0,-0.375,-27.6875,-57.0,4.375,-5.875,5.25,179.75,-2.1875,-4.8125,0.01971435546875,-0.04241943359375,-0.9989013671875,0.0020751953125,62.0,18.0,-259.0,-38.0,83.0,976.0,1112,989.3556959235046,350.9278483393438,
144,3.998012065887451,0.027191162109375,36.77665544332211,36.017900303168766,101405.75,21.0,114.0,749.0,-0.375,-28.0625,-57.375,10.0,-5.0625,4.25,179.625,-2.0625,-5.0,0.0184326171875,-0.04388427734375,-0.99884033203125,0.0028076171875,57.0,27.0,-226.0,-35.0,86.0,976.0,,989.3556959235046,350.9278483393438,
145,4.026436805725098,0.028424739837646484,35.180621026320644,36.01198950740462,101405.75,19.0,90.0,664.0,-0.375,-28.0625,-57.375,15.25,-6.75,6.8125,179.5,-2.0,-5.375,0.016845703125,-0.04852294921875,-0.9986572265625,0.00469970703125,71.0,2.0,-281.0,-32.0,95.0,975.0,1116,1014.6845567388038,404.94356884255586,
146,4.05285382270813,0.026417016983032227,37.85438759577982,36.023998492608435,101405.75,35.0,107.0,769.0,-1.5,-26.5625,-55.75,11.8125,-8.3125,4.0,179.375,-1.625,-5.8125,0.01458740234375,-0.05169677734375,-0.99853515625,0.005615234375,31.0,-43.0,-190.0,-27.0,101.0,975.0,1112,1034.1476453910432,438.1255421235894,
147,4.080249786376953,0.027395963668823242,36.5017274839653,36.02720610164611,101409.0,2.0,36.0,750.0,-1.5,-26.5625,-55.75,16.25,-11.5625,2.0,179.3125,-1.4375,-6.1875,0.0130615234375,-0.054443359375,-0.9984130859375,0.00592041015625,27.0,-70.0,-224.0,-24.0,106.0,974.0,1116,1050.5181163128345,454.06803474837113,
148,4.105000972747803,0.02475118637084961,40.402103762498314,36.05358463555536,101409.0,-20.0,32.0,771.0,-0.375,-26.875,-55.375,9.4375,-14.3125,-3.5625,179.375,-1.125,-6.4375,0.00970458984375,-0.05682373046875,-0.99835205078125,0.00494384765625,-19.0,-81.0,-208.0,-18.0,111.0,974.0,1135,1067.4144930502675,476.92614788913716,
149,4.133449077606201,0.028448104858398438,35.151726449882666,36.04737767479409,101409.0,-71.0,26.0,787.0,-0.375,-26.875,-55.375,0.625,-8.5625,-4.4375,179.5,-0.875,-6.5,0.00836181640625,-0.05712890625,-0.99835205078125,0.0040283203125,-56.0,-85.0,-186.0,-15.0,111.0,974.0,1148,1083.5315944402141,485.8879270226661,
150,4.164881944656372,0.0314328670501709,31.813833539392743,36.01542660589769,101409.0,-54.0,41.0,812.0,-2.5625,-28.375,-57.375,6.625,-8.4375,2.4375,179.5,-0.6875,-6.625,0.0052490234375,-0.05853271484375,-0.998291015625,0.00421142578125,0.0,-60.0,-279.0,-9.0,114.0,973.0,1148,1096.4252755521713,478.31887678098144,
151,4.194751977920532,0.029870033264160156,33.478369145301876,35.99736070089544,101409.0,20.0,63.0,747.0,-2.25,-28.0625,-57.0,1.25,-16.9375,2.4375,179.4375,-0.1875,-6.75,0.0023193359375,-0.05908203125,-0.99822998046875,0.00457763671875,24.0,-51.0,-226.0,-3.0,115.0,973.0,1172,1111.5402204417371,481.089359565261,
152,4.2257068157196045,0.030954837799072266,32.3051280866337,35.97031375545527,101409.0,-51.0,70.0,841.0,-2.25,-28.0625,-57.0,5.1875,2.125,0.75,179.4375,-0.125,-6.75,0.00152587890625,-0.059326171875,-0.99822998046875,0.004638671875,-40.0,-48.0,-145.0,-2.0,118.0,973.0,1153,1119.8321763533897,459.7676933902007,
153,4.251925706863403,0.026218891143798828,38.14043830135491,35.98369551778136,101409.0,33.0,70.0,772.0,-3.75,-27.6875,-55.6875,16.25,-2.875,4.125,179.3125,-0.0625,-7.1875,0.0009765625,-0.064208984375,-0.9979248046875,0.00579833984375,39.0,-68.0,-201.0,-1.0,125.0,972.0,1181,1132.0657410827118,460.45027612761476,
154,4.281732797622681,0.029807090759277344,33.54906414973604,35.966746940748955,101409.0,-16.0,41.0,843.0,-3.75,-27.6875,-55.6875,9.125,-3.1875,-4.1875,179.375,0.0,-7.5,0.00054931640625,-0.06591796875,-0.997802734375,0.0052490234375,-15.0,-87.0,-128.0,0.0,129.0,972.0,1200,1145.6525928661695,459.9878647224708,
155,4.3092429637908936,0.02751016616821289,36.35019846428509,35.96919489163466,101409.0,-11.0,29.0,884.0,-1.875,-28.375,-54.875,6.8125,-6.375,-4.75,179.5,0.1875,-7.75,-0.00091552734375,-0.0675048828125,-0.9976806640625,0.00396728515625,-18.0,-93.0,-50.0,2.0,132.0,971.0,1219,1160.3220742929357,467.3129343733333,
156,4.33623480796814,0.026991844177246094,37.048228103027945,35.97591157041102,101409.0,-18.0,15.0,902.0,-3.0,-29.1875,-55.6875,1.0,-2.625,1.0625,179.5625,0.1875,-7.8125,-0.00146484375,-0.068603515625,-0.99761962890625,0.00360107421875,-21.0,-118.0,-68.0,3.0,134.0,971.0,1186,1165.4576594343487,439.608073912159,
157,4.363271951675415,0.02703714370727539,36.98615544699388,35.98217157647369,101409.0,28.0,42.0,945.0,-3.0,-29.1875,-55.6875,-3.9375,-8.4375,2.125,179.5,0.3125,-7.75,-0.00262451171875,-0.06805419921875,-0.9976806640625,0.00390625,23.0,-90.0,-26.0,5.0,133.0,971.0,1162,1164.766127547479,393.0895559345119,
158,4.395025014877319,0.0317530632019043,31.493024582901594,35.94973850323132,101409.0,-6.0,58.0,981.0,-3.75,-29.5625,-55.6875,-8.25,4.8125,0.125,179.5,0.375,-7.625,-0.00323486328125,-0.06658935546875,-0.99774169921875,0.00384521484375,-13.0,-71.0,9.0,6.0,130.0,971.0,1172,1166.2129020379834,358.33693080059766,
159,4.426008939743042,0.030983924865722656,32.27480070177599,35.92401239235431,101409.0,70.0,115.0,965.0,-3.75,-29.5625,-55.6875,-3.4375,-3.9375,6.5,179.375,0.3125,-7.375,-0.0025634765625,-0.06512451171875,-0.99786376953125,0.00543212890625,27.0,-21.0,-4.0,5.0,127.0,972.0,1191,1171.1703216303868,338.50321065452755,
160,4.45012092590332,0.02411198616027832,41.473149219344826,35.9540791506743,101409.0,80.0,145.0,958.0,-3.75,-29.875,-54.875,-2.625,-0.375,1.125,179.3125,0.375,-7.375,-0.003173828125,-0.06439208984375,-0.9979248046875,0.005859375,73.0,19.0,-13.0,6.0,126.0,972.0,1167,1170.3362573043096,301.1937621636817,
161,4.4761669635772705,0.026046037673950195,38.39355576914275,35.96827404117467,101407.0,-6.0,151.0,958.0,-3.75,-29.875,-54.875,-4.0,2.5,-3.0625,179.375,0.3125,-7.25,-0.00244140625,-0.0633544921875,-0.99798583984375,0.00518798828125,-11.0,27.0,-14.0,5.0,124.0,972.0,1177,1171.6690058434478,276.1912814836784,
162,4.504905939102173,0.028738975524902344,34.795951551352246,35.960795228565104,101407.0,40.0,152.0,939.0,-3.375,-30.25,-56.0625,-1.25,4.125,-2.75,179.4375,0.1875,-7.1875,-0.00177001953125,-0.06317138671875,-0.99798583984375,0.004638671875,36.0,28.0,-33.0,4.0,123.0,972.0,1158,1168.9352046747583,239.05963203363547,
163,4.534058094024658,0.02915215492248535,34.3027814807848,35.95013487251395,101407.0,-25.0,120.0,953.0,-1.5,-29.875,-56.0625,-5.75,-1.1875,-5.0,179.5625,0.0625,-7.0625,-0.0008544921875,-0.06201171875,-0.998046875,0.00341796875,-27.0,-1.0,-29.0,2.0,122.0,973.0,1186,1172.3481637398068,226.86106773139392,
164,4.561539888381958,0.027481794357299805,36.3877258885891,35.952771216075696,101407.0,-14.0,126.0,1001.0,-1.5,-29.875,-56.0625,-5.5625,-9.9375,-2.375,179.625,0.25,-6.9375,-0.0023193359375,-0.06103515625,-0.99810791015625,0.0028076171875,-19.0,7.0,27.0,4.0,119.0,973.0,1195,1176.8785309918453,220.6599371324365,
165,4.5892250537872314,0.027685165405273438,36.12042714433345,35.95378262476683,101407.0,-22.0,114.0,985.0,-3.75,-29.875,-55.25,-3.625,5.3125,0.0625,179.6875,0.25,-6.8125,-0.002197265625,-0.0599365234375,-0.9981689453125,0.00262451171875,-27.0,-2.0,11.0,4.0,117.0,973.0,1177,1176.9028247934764,198.6816936683803,
166,4.616724014282227,0.027498960494995117,36.36501096766922,35.956232056857836,101407.0,-21.0,114.0,973.0,-3.75,-29.875,-55.25,-3.0625,-1.6875,1.5,179.625,0.1875,-6.75,-0.00177001953125,-0.0589599609375,-0.99822998046875,0.0029296875,-24.0,-1.0,0.0,3.0,115.0,973.0,1172,1175.9222598347812,175.24769875379616,
167,4.645151853561401,0.028427839279174805,35.17678533987504,35.95146192518172,101407.0,9.0,111.0,924.0,-3.75,-29.1875,-56.5,-0.5,0.4375,2.625,179.5625,0.25,-6.6875,-0.00225830078125,-0.05877685546875,-0.998291015625,0.00360107421875,4.0,-3.0,-49.0,4.0,115.0,973.0,1186,1177.937807867825,164.81297892847562,
168,4.674469947814941,0.02931809425354004,34.10862900405793,35.93990374855887,101407.0,-27.0,75.0,817.0,-3.75,-29.1875,-56.5,2.0,5.0,1.0,179.5,0.125,-6.75,-0.00103759765625,-0.05908203125,-0.99822998046875,0.0040283203125,-29.0,-40.0,-156.0,2.0,115.0,973.0,1172,1176.7502462942603,144.28107132240825,
169,4.703561067581177,0.02909111976623535,34.37475105927862,35.93022341408844,101407.0,-36.0,69.0,798.0,-2.5625,-28.0625,-55.6875,0.625,0.0,3.1875,179.4375,0.125,-6.75,-0.0008544921875,-0.059326171875,-0.99822998046875,0.00445556640625,-39.0,-46.0,-175.0,2.0,116.0,973.0,1167,1174.8001970354082,123.14971840753059,
170,4.729375123977661,0.025814056396484375,38.73858430619181,35.94555211704602,101407.0,-20.0,54.0,772.0,-2.5625,-28.0625,-55.6875,-2.0625,3.75,6.3125,179.3125,0.0625,-6.6875,-0.00048828125,-0.058837890625,-0.99822998046875,0.00592041015625,-21.0,-60.0,-200.0,1.0,115.0,973.0,1158,1171.4401576283267,97.81842958244195,
171,4.756236791610718,0.02686166763305664,37.22777057852414,35.95279366696337,101407.0,6.0,68.0,714.0,-3.375,-29.5625,-56.5,-2.3125,-1.6875,7.4375,179.0625,0.0625,-6.625,-0.00048828125,-0.05810546875,-0.998291015625,0.00775146484375,4.0,-45.0,-259.0,1.0,113.0,974.0,1172,1171.5521261026615,88.45342029165425,
172,4.784766912460327,0.028530120849609375,35.050675223960425,35.94741460698607,101407.0,2.0,93.0,618.0,-3.375,-29.5625,-54.875,-0.5625,2.5625,5.875,178.875,0.0625,-6.625,-0.0003662109375,-0.05810546875,-0.998291015625,0.0093994140625,1.0,-20.0,-355.0,1.0,113.0,974.0,1135,1164.2417008821294,53.98454424709676,
173,4.814371824264526,0.02960491180419922,33.778178655413456,35.934075371594,101407.0,0.0,94.0,597.0,-3.375,-29.5625,-54.875,-0.1875,5.6875,3.625,178.75,0.0,-6.625,0.000732421875,-0.0579833984375,-0.998291015625,0.0106201171875,1.0,-19.0,-376.0,0.0,113.0,974.0,1121,1155.5933607057036,19.37357186717705,
174,4.8426408767700195,0.028269052505493164,35.37437272811612,35.930808091649325,101404.0,-3.0,82.0,583.0,-2.5625,-29.875,-55.6875,4.25,3.5,0.5,178.6875,-0.0625,-6.625,0.00152587890625,-0.05816650390625,-0.99822998046875,0.0111083984375,16.0,-22.0,-387.0,-1.0,113.0,974.0,1130,1150.474688564563,-0.6707669389141095,
175,4.870800018310547,0.028159141540527344,35.51244623564873,35.92838945186244,101404.0,-20.0,66.0,531.0,-2.5625,-29.875,-55.6875,7.125,6.0625,0.375,178.6875,-0.1875,-6.8125,0.0028076171875,-0.05963134765625,-0.9981689453125,0.01116943359375,-16.0,-50.0,-442.0,-4.0,116.0,973.0,1083,1136.9797508516504,-48.52751524334637,
176,4.898052930831909,0.027252912521362305,36.69332586805707,35.932645580885406,101404.0,-56.0,40.0,486.0,-3.75,-29.875,-54.875,9.3125,4.0625,4.0625,178.5625,-0.25,-7.0625,0.00335693359375,-0.0618896484375,-0.99798583984375,0.01239013671875,-28.0,-74.0,-497.0,-5.0,121.0,973.0,1088,1127.1838006813205,-79.61936289772811,
177,4.92635703086853,0.028304100036621094,35.330570437009335,35.92918639289009,101404.0,-83.0,0.0,536.0,-3.75,-29.875,-54.875,2.5625,9.1875,17.375,178.125,-0.1875,-7.25,0.00311279296875,-0.06329345703125,-0.99786376953125,0.0159912109375,-79.0,-123.0,-435.0,-4.0,123.0,972.0,1036,1108.9470405450563,-136.08894046166773,
178,4.950336694717407,0.023979663848876953,41.702002425977845,35.957150185349406,101404.0,-87.0,-8.0,523.0,-3.75,-28.375,-56.0625,-0.6875,15.25,29.125,177.625,-0.4375,-7.25,0.00543212890625,-0.0633544921875,-0.99774169921875,0.02056884765625,-79.0,-132.0,-449.0,-8.0,124.0,972.0,990,1085.157632436045,-221.68664188295725,
179,4.978024959564209,0.027688264846801758,36.11638380133123,35.958035858395974,101404.0,-20.0,16.0,637.0,-3.75,-28.375,-56.0625,-8.0625,21.3125,27.1875,176.6875,-0.875,-7.0625,0.00946044921875,-0.06182861328125,-0.99761962890625,0.02850341796875,-5.0,-105.0,-335.0,-15.0,121.0,972.0,961,1060.3261059488361,-289.2004717931577,
180,5.006917953491211,0.028892993927001953,34.61046655554272,35.95025955527992,101404.0,-34.0,61.0,672.0,-3.75,-30.25,-55.25,-6.8125,15.25,20.8125,176.0,-1.3125,-6.875,0.013671875,-0.06005859375,-0.99749755859375,0.03448486328125,-11.0,-56.0,-300.0,-22.0,118.0,973.0,929,1034.060884759069,-351.1855805700785,
181,5.034541845321655,0.027623891830444336,36.20054719798382,35.95163285179448,101404.0,-8.0,66.0,715.0,-3.75,-30.25,-55.25,-2.375,3.375,20.375,175.625,-1.375,-6.8125,0.01458740234375,-0.0594482421875,-0.99737548828125,0.03802490234375,15.0,-50.0,-257.0,-24.0,117.0,973.0,900,1007.2487078072553,-413.1285702355534,
182,5.063019752502441,0.028477907180786133,35.11493993051195,35.94692671503897,101404.0,48.0,91.0,765.0,-2.5625,-30.25,-55.6875,3.4375,-29.375,22.625,175.0,-0.8125,-6.875,0.01019287109375,-0.06005859375,-0.9971923828125,0.04327392578125,63.0,-26.0,-208.0,-14.0,118.0,973.0,883,982.3989662458043,-459.07543143390774,
183,5.094511985778809,0.03149223327636719,31.753861062322088,35.921006862058526,101404.0,21.0,113.0,886.0,-3.0,-30.6875,-55.25,-0.9375,-12.25,2.125,174.75,-0.0625,-7.0,0.00372314453125,-0.061279296875,-0.9970703125,0.04541015625,-36.0,-18.0,-65.0,-2.0,119.0,973.0,827,951.3191729966435,-511.85823195847195,
184,5.124247789382935,0.029735803604125977,33.62949302843948,35.90770929954529,101404.0,-41.0,110.0,1053.0,-3.0,-30.6875,-55.25,-9.0,-0.375,4.9375,174.6875,-0.1875,-6.6875,0.0047607421875,-0.05828857421875,-0.99725341796875,0.04583740234375,-17.0,3.0,94.0,-4.0,114.0,973.0,770,915.0553383973148,-582.6258460468854,
185,5.152695894241333,0.028448104858398438,35.151726449882666,35.90353550784096,101404.0,-8.0,122.0,1079.0,-4.0,-31.0625,-55.25,-3.75,-6.125,6.1875,174.625,-0.125,-6.625,0.004150390625,-0.0579833984375,-0.99725341796875,0.04638671875,-2.0,23.0,112.0,-1.0,113.0,974.0,766,885.2442707178519,-629.1543110669387,
186,5.176471948623657,0.02377605438232422,42.05912317997674,35.9318087388563,101404.0,-1.0,165.0,1165.0,-4.0,-31.0625,-55.25,-6.8125,7.6875,8.125,174.375,-0.0625,-6.5,0.0037841796875,-0.05682373046875,-0.9971923828125,0.04888916015625,28.0,71.0,240.0,-1.0,111.0,974.0,691,846.3954165742816,-729.6337541427821,
187,5.203617811203003,0.027145862579345703,36.838026313478196,35.936536230121064,101404.0,-7.0,184.0,1218.0,-5.0625,-30.25,-56.0625,-16.625,19.1875,3.625,174.1875,-0.625,-6.1875,0.00823974609375,-0.05364990234375,-0.99725341796875,0.05047607421875,-32.0,77.0,274.0,-10.0,105.0,974.0,616,800.3163332594254,-826.4166270938667,
188,5.230373859405518,0.02675604820251465,37.37472710585174,35.94389331499298,101407.25,-69.0,193.0,1300.0,-5.0625,-30.25,-56.0625,-16.625,0.0,7.25,174.0625,-0.6875,-5.8125,0.00909423828125,-0.050537109375,-0.99737548828125,0.051513671875,-18.0,102.0,414.0,-12.0,99.0,975.0,574,755.0530666075404,-912.9451882878404,
189,5.259317874908447,0.028944015502929688,34.54945634266886,35.93621920091492,101407.25,48.0,211.0,1469.0,-5.0625,-29.875,-54.5,-4.25,-13.4375,6.75,173.8125,-0.25,-5.625,0.00518798828125,-0.04913330078125,-0.99737548828125,0.053466796875,59.0,118.0,527.0,-5.0,96.0,975.0,579,719.8424532860324,-943.3014242340597,
190,5.286751747131348,0.02743387222290039,36.4512888255436,35.938891986576856,101407.25,6.0,191.0,1545.0,-5.0625,-29.875,-54.5,-1.5625,3.25,2.0625,173.75,-0.25,-5.5625,0.0050048828125,-0.04876708984375,-0.997314453125,0.053955078125,10.0,95.0,569.0,-4.0,95.0,975.0,560,687.873962628826,-965.5005504369061,
191,5.311851739883423,0.025099992752075195,39.84064895466246,35.9573288851228,101407.25,0.0,216.0,1558.0,-5.0625,-29.5625,-54.875,-9.75,28.625,9.3125,173.5625,-0.8125,-5.4375,0.01025390625,-0.0469970703125,-0.99725341796875,0.05596923828125,15.0,123.0,622.0,-14.0,93.0,976.0,555,661.2991701030609,-974.8261933994152,
192,5.340394735336304,0.02854299545288086,35.0348652667101,35.95239856139755,101407.25,-19.0,215.0,1573.0,-3.25,-28.75,-53.6875,0.6875,-3.375,11.25,173.25,-1.1875,-5.25,0.01361083984375,-0.0455322265625,-0.9971923828125,0.05859375,8.0,115.0,632.0,-21.0,90.0,976.0,560,641.0393360824487,-948.3236295832794,
193,5.368041038513184,0.027646303176879883,36.17120139362005,35.95352543233468,101407.25,-64.0,189.0,1620.0,-3.25,-28.75,-53.6875,-5.4375,-9.8125,16.0625,172.875,-0.6875,-5.25,0.00933837890625,-0.04541015625,-0.99700927734375,0.06201171875,-29.0,87.0,684.0,-12.0,89.0,976.0,536,620.031468865959,-929.479246218759,
194,5.394928932189941,0.026887893676757812,37.191459175711145,35.95969519495605,101407.25,113.0,170.0,1779.0,-4.6875,-30.25,-54.5,-15.5,13.875,9.8125,172.625,-0.8125,-5.0,0.0103759765625,-0.04339599609375,-0.9969482421875,0.064208984375,128.0,84.0,802.0,-14.0,86.0,976.0,541,604.2251750927672,-895.3172345553791,
195,5.423496961593628,0.028568029403686523,35.00416447593534,35.954661979325905,101407.25,6.0,136.0,1869.0,-4.6875,-30.25,-54.5,-31.0625,24.3125,-9.5,172.6875,-1.5625,-4.1875,0.0162353515625,-0.03594970703125,-0.9971923828125,0.0634765625,33.0,63.0,964.0,-27.0,72.0,977.0,574,598.1801400742138,-826.9456511050646,
196,5.448730945587158,0.025233983993530273,39.629097024726235,35.971678902357496,101407.25,-91.0,120.0,2016.0,-5.0625,-30.1875,-54.5,-31.375,11.9375,-10.375,172.875,-1.875,-3.5625,0.0186767578125,-0.03045654296875,-0.9974365234375,0.0618896484375,-58.0,58.0,1038.0,-32.0,61.0,978.0,522,582.944112059371,-804.6300892417232,
197,5.476408958435059,0.02767801284790039,36.12976139202343,35.97247785824506,101407.25,-80.0,174.0,2347.0,-5.0625,-30.1875,-54.5,-15.0625,-15.625,5.75,172.875,-1.3125,-2.6875,0.01312255859375,-0.02301025390625,-0.99774169921875,0.06195068359375,-5.0,127.0,1416.0,-22.0,46.0,979.0,551,576.5552896474969,-747.2497432492532,
198,5.5044660568237305,0.028057098388671875,35.64160435078178,35.970791345791845,101407.25,-60.0,162.0,2269.0,-3.875,-27.5625,-57.25,-7.0,15.625,2.0625,172.8125,-1.625,-2.5625,0.0159912109375,-0.02142333984375,-0.9976806640625,0.0626220703125,-72.0,111.0,1260.0,-28.0,43.0,979.0,579,577.0442317179975,-670.7821009416047,
199,5.531232833862305,0.02676677703857422,37.359746321302595,35.97751278552559,101407.25,-104.0,125.0,2022.0,-3.875,-27.5625,-57.25,23.4375,-12.3125,9.0,172.625,-1.5625,-2.875,0.0155029296875,-0.0244140625,-0.99755859375,0.063720703125,-77.0,75.0,1043.0,-27.0,49.0,979.0,668,595.235385374398,-535.7422022579483,
200,5.556187868118286,0.024955034255981445,40.07207482635737,35.99590308088952,101407.25,-16.0,121.0,2026.0,-4.1875,-26.1875,-55.6875,26.125,-32.6875,16.0625,172.25,-0.6875,-3.6875,0.00848388671875,-0.03167724609375,-0.9971923828125,0.067138671875,78.0,54.0,1044.0,-12.0,63.0,978.0,700,616.1883082995184,-398.2052725035209,
201,5.580399990081787,0.024212121963500977,41.30162575207035,36.018923438686,101407.25,43.0,77.0,1981.0,-4.1875,-26.1875,-55.6875,22.5,-15.375,8.75,172.125,-0.5,-4.0625,0.0072021484375,-0.035400390625,-0.99700927734375,0.068115234375,40.0,0.0,931.0,-9.0,70.0,978.0,766,646.1506466396148,-234.63541677521187,
202,5.606498956680298,0.026098966598510742,38.31569331396677,36.02961519493577,101415.5,9.0,8.0,1707.0,-3.1875,-27.5625,-56.875,15.5625,0.0,-5.1875,172.3125,-0.5,-4.5,0.0074462890625,-0.0391845703125,-0.9969482421875,0.0667724609375,0.0,-93.0,723.0,-9.0,77.0,977.0,813,679.520517311692,-83.31290203788653,
203,5.633768081665039,0.02726912498474121,36.67151038251366,36.03272215990902,101415.5,-133.0,-125.0,1945.0,-3.1875,-27.5625,-56.875,-19.0625,4.75,-15.0,172.5625,-0.5625,-4.25,0.0076904296875,-0.03692626953125,-0.9971923828125,0.06439208984375,-122.0,-198.0,967.0,-10.0,73.0,977.0,878,719.2164138493536,70.58923636830671,
204,5.659833908081055,0.026065826416015625,38.36440801990341,36.043460517230166,101415.5,-178.0,-235.0,1821.0,-5.375,-26.75,-56.0625,-3.0,-8.375,-12.5625,173.0,-0.3125,-4.125,0.00531005859375,-0.03582763671875,-0.99749755859375,0.06097412109375,-190.0,-330.0,739.0,-6.0,70.0,978.0,905,756.3731310794828,206.07985878116156,
205,5.6889307498931885,0.02909684181213379,34.36799108496325,36.03489109159027,101415.5,-170.0,-181.0,1278.0,-5.5,-26.5,-56.0625,-0.4375,-31.375,-11.375,173.25,0.1875,-4.125,6.103515625e-05,-0.036376953125,-0.99761962890625,0.05877685546875,-214.0,-287.0,445.0,4.0,71.0,978.0,1018,808.6985048635863,365.30367087598927,
206,5.713191032409668,0.024260282516479492,41.219635398751905,36.05690739753101,101415.5,11.0,-259.0,624.0,-5.5,-26.5,-56.0625,-8.3125,-4.5625,-3.0625,173.375,0.4375,-3.9375,-0.0020751953125,-0.0345458984375,-0.99774169921875,0.057373046875,3.0,-327.0,-353.0,7.0,67.0,978.0,1112,869.3588038908691,578.8128446967766,
207,5.739462852478027,0.026271820068359375,38.06359808334543,36.06609282445782,101415.5,115.0,-176.0,216.0,-5.5,-25.0,-56.5,-46.625,-3.75,-27.875,174.0,0.625,-3.0625,-0.00421142578125,-0.0274658203125,-0.998291015625,0.0517578125,104.0,-229.0,-762.0,11.0,53.0,979.0,1158,927.0870431126954,740.6660098069801,
208,5.769226789474487,0.02976393699645996,33.59770584512852,36.05335820382032,101415.5,-22.0,-44.0,95.0,-5.5,-25.0,-56.5,-96.9375,29.3125,-45.5625,174.8125,0.1875,-1.5,0.0020751953125,-0.00274658203125,-0.99920654296875,0.0404052734375,-18.0,-49.0,-757.0,-3.0,5.0,980.0,1209,983.4696344901563,856.0319808148834,
209,5.793725967407227,0.024499177932739258,40.81769611802602,36.073504541936494,101415.5,-250.0,-30.0,765.0,-4.0,-23.5625,-58.0625,-126.4375,43.75,-52.6875,176.375,-1.0625,2.1875,0.00897216796875,0.01959228515625,-0.999267578125,0.03125,-231.0,7.0,-214.0,-18.0,-37.0,979.0,1322,1051.175707592125,1046.7893744554965,
210,5.820096015930176,0.02637004852294922,37.92181114607067,36.08187896302902,101415.5,-236.0,106.0,830.0,-4.0,-23.5625,-58.0625,-74.25,46.125,-30.1875,177.125,-1.875,3.9375,0.0201416015625,0.03875732421875,-0.998779296875,0.02374267578125,-195.0,181.0,-146.0,-41.0,-75.0,976.0,1256,1092.1405660737,1097.4565997063266,
211,5.8463897705078125,0.02629375457763672,38.03184505458634,36.09064880764402,101415.5,-116.0,219.0,234.0,-1.25,-16.5625,-59.25,46.0,21.375,27.6875,176.9375,-3.0,3.9375,0.0257568359375,0.03515625,-0.99871826171875,0.02642822265625,-64.0,287.0,-742.0,-52.0,-67.0,976.0,1364,1146.5124528589602,1194.4972570899463,
212,5.873012065887451,0.026622295379638672,37.56250111944977,36.097320697052815,101415.5,279.0,305.0,-198.0,-1.25,-16.5625,-59.25,75.125,-67.5,42.9375,175.625,-1.875,1.6875,0.01202392578125,0.01129150390625,-0.99908447265625,0.03985595703125,160.0,292.0,-1063.0,-24.0,-21.0,980.0,1480,1213.2099622871683,1325.58005863711,
213,5.900354862213135,0.027342796325683594,36.57270412612047,36.099523668328466,101415.5,-67.0,254.0,412.0,1.25,-16.5625,-60.1875,9.0625,22.0,15.6875,175.125,-1.375,1.0625,0.01171875,0.009765625,-0.9990234375,0.041015625,-70.0,259.0,-627.0,-23.0,-18.0,980.0,1532,1276.9679698297348,1426.2023273259229,
214,5.926177740097046,0.025822877883911133,38.72535061721556,36.110965513581704,101415.5,70.0,164.0,433.0,1.25,-16.5625,-60.1875,46.125,8.9375,31.4375,174.625,-1.875,0.25,0.0164794921875,0.00311279296875,-0.998779296875,0.04681396484375,235.0,109.0,-744.0,-31.0,6.0,980.0,1574,1336.374375863788,1513.6354848510684,
215,5.95452880859375,0.0283510684967041,35.272039221952184,36.10697116616611,101415.5,229.0,116.0,0.0,-0.875,-18.75,-58.6875,86.6875,-20.3125,22.6875,173.75,-1.4375,-2.0,0.01275634765625,-0.02459716796875,-0.99810791015625,0.0545654296875,117.0,-69.0,-1100.0,-22.0,49.0,979.0,1569,1382.8995006910304,1526.3755391372335,
216,5.98008394241333,0.025555133819580078,39.13108055156457,36.119894315869885,101398.25,-107.0,14.0,-302.0,-0.875,-18.75,-58.6875,77.5625,-3.3125,-3.5625,173.75,-1.125,-4.4375,0.01226806640625,-0.0382080078125,-0.99774169921875,0.0540771484375,-87.0,-62.0,-1279.0,-19.0,76.0,977.0,1583,1422.9196005528242,1530.3409603608613,
217,6.006156921386719,0.026072978973388672,38.35388357504709,36.129592156892635,101398.25,-196.0,33.0,-248.0,-2.375,-21.75,-58.25,56.4375,-9.875,-9.4375,173.8125,-1.0625,-5.75,0.01214599609375,-0.0498046875,-0.99725341796875,0.053466796875,-204.0,-73.0,-1277.0,-18.0,98.0,975.0,1621,1462.5356804422595,1529.2499159026916,
218,6.033859968185425,0.027703046798706055,36.097112612418776,36.129443034714576,101398.25,-57.0,62.0,-111.0,-2.375,-21.75,-58.25,36.1875,-3.6875,18.5625,173.5,-0.8125,-7.0625,0.01080322265625,-0.0615234375,-0.9964599609375,0.05657958984375,-43.0,-59.0,-1085.0,-14.0,121.0,973.0,1630,1496.0285443538075,1497.224492345179,
219,6.058907985687256,0.025048017501831055,39.923319277739175,36.145127227106926,101398.25,46.0,58.0,-28.0,-3.5625,-25.375,-57.0625,30.4375,2.9375,9.1875,173.0625,-0.8125,-8.0625,0.01129150390625,-0.06976318359375,-0.9957275390625,0.059814453125,60.0,-79.0,-999.0,-13.0,132.0,971.0,1612,1519.222835483046,1440.1013521280036,
220,6.094521999359131,0.035614013671875,28.07883461868038,36.09799095370139,101398.25,-9.0,18.0,92.0,-3.1875,-26.5625,-55.375,30.6875,-3.8125,8.875,172.875,-0.6875,-8.9375,0.01116943359375,-0.0775146484375,-0.99505615234375,0.06158447265625,3.0,-133.0,-876.0,-12.0,152.0,968.0,1635,1542.378268386437,1361.1089740170294,
221,6.120772838592529,0.026250839233398438,38.094020199084504,36.1065515463271,101398.25,13.0,-34.0,114.0,-3.1875,-26.5625,-55.375,33.375,-10.0,10.0,172.5625,-0.4375,-9.8125,0.00946044921875,-0.08563232421875,-0.99420166015625,0.0640869140625,21.0,-202.0,-852.0,-7.0,168.0,966.0,1607,1555.3026147091498,1274.232107603065,
222,6.1454081535339355,0.02463531494140625,40.592133787550324,36.12453305844922,101398.25,-2.0,-51.0,77.0,-3.1875,-28.0625,-55.375,43.25,-23.125,13.0,172.4375,0.0,-10.625,0.0064697265625,-0.0927734375,-0.9935302734375,0.065673828125,-1.0,-232.0,-886.0,0.0,181.0,963.0,1565,1557.2420917673198,1154.6816480650707,
223,6.170834064483643,0.02542591094970703,39.3299576159934,36.13774048527425,101398.25,69.0,-82.0,-14.0,-3.1875,-28.0625,-55.375,45.4375,-18.125,12.25,172.0625,0.6875,-12.0,0.0010986328125,-0.104736328125,-0.99212646484375,0.06854248046875,57.0,-286.0,-973.0,11.0,204.0,959.0,1541,1553.993673413856,1026.4374676424886,
224,6.20015287399292,0.029318809509277344,34.107796896854566,36.12814144302594,101398.25,46.0,-72.0,1.0,-5.0,-30.25,-53.375,38.625,-9.9375,6.4375,171.875,1.0625,-13.125,-0.00152587890625,-0.11517333984375,-0.9908447265625,0.0701904296875,27.0,-296.0,-952.0,18.0,223.0,954.0,1485,1540.194938731085,876.729276878886,
225,6.2275190353393555,0.027366161346435547,36.54147862905334,36.129957808750255,101398.25,10.0,-82.0,52.0,-5.0,-30.25,-53.375,36.3125,-13.8125,3.75,171.8125,1.375,-13.875,-0.00347900390625,-0.12164306640625,-0.99005126953125,0.0706787109375,-13.0,-318.0,-898.0,23.0,235.0,951.0,,1540.194938731085,876.729276878886,
226,6.253968954086304,0.026449918746948242,37.807299506936246,36.13705179209965,101398.25,31.0,-103.0,-55.0,-5.6875,-32.5,-54.5625,39.375,-12.375,-0.1875,171.8125,1.75,-15.0,-0.006103515625,-0.131591796875,-0.98876953125,0.070556640625,1.0,-357.0,-1002.0,30.0,254.0,946.0,1372,1506.555950984868,661.8764207078598,
227,6.282159805297852,0.02819085121154785,35.47250107830617,36.13406965683475,101398.25,56.0,-72.0,-49.0,-5.6875,-32.5,-54.5625,33.0,-22.9375,-3.5,171.9375,2.25,-16.0625,-0.010498046875,-0.140869140625,-0.987548828125,0.06915283203125,17.0,-344.0,-990.0,39.0,271.0,941.0,1336,1472.4447607878947,474.6878555326291,
228,6.308944940567017,0.02678513526916504,37.334140371178066,36.13916465397279,101398.25,-35.0,-84.0,138.0,-6.5,-35.875,-52.875,16.375,17.5,-3.625,172.0625,2.25,-16.6875,-0.00994873046875,-0.14617919921875,-0.98687744140625,0.068115234375,-74.0,-365.0,-800.0,38.0,281.0,938.0,1252,1428.3558086303158,262.6167571124458,
229,6.337028980255127,0.02808403968811035,35.60741300416833,36.13680807102456,101398.25,133.0,180.0,382.0,-7.5625,-36.875,-51.375,12.1875,41.8125,11.3125,171.6875,1.25,-16.9375,-0.0003662109375,-0.14794921875,-0.98638916015625,0.07135009765625,111.0,-105.0,-555.0,21.0,286.0,937.0,1223,1387.284646904253,90.11129958711001,
230,6.363916873931885,0.026887893676757812,37.191459175711145,36.141264029097336,101396.0,307.0,336.0,580.0,-7.5625,-36.875,-51.375,12.5,34.5,1.75,171.5,0.625,-17.25,0.00537109375,-0.1500244140625,-0.9859619140625,0.07305908203125,296.0,45.0,-355.0,11.0,290.0,936.0,1116,1333.0277175234023,-120.68926777833568,
231,6.391189098358154,0.02727222442626953,36.667342728258205,36.14350889091078,101396.0,126.0,355.0,1112.0,-6.0625,-38.25,-52.1875,-8.1875,16.875,-54.875,172.3125,-0.3125,-17.25,0.01300048828125,-0.14947509765625,-0.98651123046875,0.06591796875,132.0,65.0,176.0,-5.0,290.0,936.0,1055,1277.422174018722,-312.5110931282207,
232,6.419785022735596,0.028595924377441406,34.97001834250459,36.13828176151922,101396.0,-469.0,257.0,1847.0,-6.0625,-38.25,-52.1875,-81.4375,99.6875,-67.1875,174.0625,-2.9375,-15.6875,0.03326416015625,-0.13507080078125,-0.98895263671875,0.05120849609375,-418.0,-8.0,904.0,-50.0,265.0,942.0,980,1217.9377392149777,-489.27716143344435,
233,6.447842836380005,0.02805781364440918,35.64069576744305,36.1361165140949,101396.0,-94.0,171.0,2205.0,-3.1875,-39.5,-51.375,-101.125,110.0625,-34.875,174.5625,-5.25,-13.6875,0.05194091796875,-0.11676025390625,-0.99066162109375,0.0469970703125,-4.0,-60.0,1256.0,-90.0,231.0,948.0,,1217.9377392149777,-489.27716143344435,
234,6.470469951629639,0.02262711524963379,44.19476318423687,36.16429745432405,101396.0,44.0,327.0,2317.0,-3.1875,-39.5,-51.375,-78.375,11.0625,-23.5,174.875,-6.75,-11.1875,0.06365966796875,-0.0947265625,-0.99249267578125,0.044189453125,160.0,137.0,1362.0,-115.0,189.0,955.0,906,1155.5501913719822,-716.0697355467431,
235,6.494633913040161,0.02416396141052246,41.38394293100216,36.18371768856109,101396.0,-273.0,356.0,1901.0,1.25,-35.75,-53.0625,-39.9375,-31.75,-24.1875,175.375,-6.375,-10.1875,0.0594482421875,-0.08612060546875,-0.99371337890625,0.04010009765625,-101.0,177.0,1094.0,-109.0,172.0,959.0,855,1095.4401530975858,-893.2218013448664,
236,6.521397113800049,0.026763200759887695,37.36473858159693,36.18856448729307,101396.0,-216.0,376.0,1692.0,1.25,-35.75,-53.0625,-10.625,-35.3125,5.5625,175.5625,-5.5,-9.6875,0.05145263671875,-0.08251953125,-0.9945068359375,0.03851318359375,-121.0,212.0,730.0,-94.0,164.0,962.0,789,1034.1521224780688,-1032.9007454382959,
237,6.547648906707764,0.026251792907714844,38.092636320703306,36.196198570941156,101396.0,-180.0,308.0,1811.0,1.25,-33.875,-54.25,-36.125,-17.125,1.375,175.375,-4.6875,-8.9375,0.04461669921875,-0.0765380859375,-0.99530029296875,0.03985595703125,-99.0,156.0,845.0,-81.0,152.0,965.0,681,963.5216979824552,-1198.6605782432969,
238,6.5776379108428955,0.029989004135131836,33.34555544071934,36.18320181590862,101396.0,-123.0,268.0,2067.0,1.25,-33.875,-54.25,-37.5,-24.375,-4.625,175.5,-4.1875,-7.6875,0.03924560546875,-0.06591796875,-0.99627685546875,0.03863525390625,-51.0,136.0,1098.0,-71.0,131.0,969.0,705,911.8173583859642,-1251.2055126730243,
239,6.605506896972656,0.027868986129760742,35.88218083513701,36.18193179232545,101396.0,-125.0,229.0,1563.0,0.5625,-33.75,-53.75,9.5,5.4375,-8.75,175.6875,-4.0,-7.5625,0.03753662109375,-0.06500244140625,-0.9964599609375,0.037109375,-56.0,99.0,594.0,-68.0,129.0,969.0,714,872.2538867087715,-1268.0473259244072,
240,6.6360039710998535,0.030497074127197266,32.79003080194506,36.166343637709176,101396.0,-111.0,248.0,1318.0,0.5625,-33.75,-53.75,7.0625,-25.3125,-7.9375,175.9375,-3.625,-7.875,0.034423828125,-0.0677490234375,-0.99652099609375,0.03485107421875,-45.0,115.0,325.0,-62.0,134.0,969.0,686,835.0031093670173,-1263.3880069752183,
241,6.661219835281372,0.025215864181518555,39.6575740098144,36.1795595941055,101396.0,-138.0,217.0,1325.0,0.1875,-31.5625,-55.0,-7.5625,-27.6875,-15.125,176.25,-3.125,-7.8125,0.02984619140625,-0.06719970703125,-0.99676513671875,0.0323486328125,-84.0,84.0,355.0,-54.0,133.0,970.0,705,809.0024874936139,-1240.1613649022659,
242,6.684558868408203,0.023339033126831055,42.846676405389665,36.20283772856167,101396.0,-136.0,205.0,1398.0,0.1875,-31.5625,-55.0,-16.9375,-15.5625,-19.25,176.625,-2.8125,-7.5,0.026611328125,-0.06475830078125,-0.99713134765625,0.029052734375,-88.0,77.0,427.0,-48.0,128.0,971.0,756,798.4019899948912,-1161.5648370184308,
243,6.711825847625732,0.027266979217529297,36.67439623664376,36.20475344811871,101396.0,-156.0,125.0,1555.0,-0.875,-33.375,-56.1875,-36.4375,20.4375,-17.8125,177.125,-3.1875,-6.5625,0.029541015625,-0.05682373046875,-0.99761962890625,0.02471923828125,-101.0,12.0,583.0,-55.0,112.0,972.0,,798.4019899948912,-1161.5648370184308,
244,6.734227895736694,0.022402048110961914,44.63877566224284,36.232810023324504,101404.0,-177.0,122.0,1686.0,-0.875,-33.375,-56.1875,-42.4375,15.625,-14.0625,177.375,-3.5625,-5.75,0.03253173828125,-0.0496826171875,-0.99798583984375,0.02252197265625,-115.0,23.0,712.0,-61.0,98.0,973.0,709,780.521591995913,-1125.2242608193883,
245,6.7611470222473145,0.026919126510620117,37.148307899421646,36.23645502661548,101404.0,-200.0,92.0,1715.0,-0.875,-32.25,-55.75,-25.5,13.5625,-7.0625,177.5625,-4.0,-4.75,0.0361328125,-0.04071044921875,-0.998291015625,0.02069091796875,-131.0,10.0,740.0,-69.0,81.0,974.0,695,763.4172735967304,-1076.2414833677074,
246,6.796384811401367,0.035237789154052734,28.37862487990365,36.19571387236923,101404.0,-174.0,171.0,1452.0,0.5625,-29.375,-57.0,4.1875,-11.9375,7.875,177.5,-3.875,-4.625,0.034912109375,-0.0400390625,-0.99835205078125,0.021484375,-36.0,124.0,413.0,-64.0,81.0,975.0,695,749.7338188773844,-1007.4490978850836,
247,6.825230836868286,0.028846025466918945,34.666820950664935,36.18925218847754,101404.0,-58.0,218.0,1313.0,0.5625,-29.375,-57.0,-5.9375,-6.4375,4.6875,177.1875,-3.4375,-4.6875,0.031494140625,-0.04052734375,-0.99835205078125,0.02447509765625,1.0,137.0,337.0,-60.0,81.0,975.0,719,743.5870551019075,-928.0130640196242,
248,6.853610038757324,0.028379201889038086,35.23707269534827,36.185309435108536,101404.0,-129.0,212.0,1351.0,0.1875,-29.6875,-56.875,-9.125,-7.0625,2.6875,177.125,-3.375,-4.625,0.03082275390625,-0.03973388671875,-0.9984130859375,0.02471923828125,-70.0,133.0,375.0,-58.0,79.0,975.0,752,745.2696440815259,-829.282806598541,
249,6.879958868026733,0.02634882926940918,37.952350359679684,36.192076838886194,101404.0,-115.0,215.0,1321.0,0.1875,-29.6875,-56.875,0.9375,-5.625,8.4375,176.875,-2.9375,-4.5625,0.0269775390625,-0.03936767578125,-0.99847412109375,0.02679443359375,-56.0,117.0,282.0,-50.0,78.0,976.0,789,754.0157152652207,-713.1611301552588,
250,6.9069578647613525,0.02699899673461914,37.03841330954946,36.19538513119885,101404.0,-87.0,200.0,1266.0,-0.5625,-30.0,-57.25,-8.375,-1.1875,3.75,176.75,-2.875,-4.4375,0.02667236328125,-0.03839111328125,-0.99853515625,0.0281982421875,-38.0,121.0,317.0,-50.0,76.0,976.0,789,761.0125722121766,-615.9297691928186,
251,6.937389850616455,0.03043198585510254,32.86016248697519,36.18075463608207,101404.0,-111.0,175.0,1404.0,-0.5625,-30.0,-57.25,-13.625,-1.375,2.75,176.6875,-2.875,-4.1875,0.0263671875,-0.03631591796875,-0.99859619140625,0.0286865234375,-62.0,103.0,427.0,-49.0,72.0,976.0,775,763.8100577697413,-545.1442092758824,
252,6.961482763290405,0.024092912673950195,41.505982009440594,36.19918465199072,101404.0,-110.0,155.0,1393.0,-1.75,-29.25,-56.5,-2.8125,-4.875,8.75,176.5,-2.8125,-4.0,0.02569580078125,-0.034423828125,-0.99859619140625,0.0303955078125,-33.0,82.0,343.0,-48.0,68.0,977.0,784,767.8480462157931,-473.8697207686786,
253,6.987964868545532,0.026482105255126953,37.76134829032897,36.20510474212775,101404.0,-31.0,152.0,1286.0,-1.75,-29.25,-56.5,0.25,-5.3125,9.25,176.3125,-2.6875,-4.0,0.024658203125,-0.0345458984375,-0.99859619140625,0.031982421875,14.0,83.0,309.0,-46.0,69.0,977.0,827,779.6784369726345,-381.8095981138334,
254,7.01542592048645,0.02746105194091797,36.415210974127454,36.2059271780305,101404.0,-69.0,127.0,1246.0,-2.1875,-28.875,-58.0625,0.5,-7.75,2.8125,176.125,-2.4375,-4.0,0.0228271484375,-0.034423828125,-0.99859619140625,0.03338623046875,-57.0,58.0,269.0,-43.0,68.0,977.0,850,793.7427495781076,-292.4131472290117,
255,7.043956995010376,0.02853107452392578,35.049503626700535,36.20124316213608,101404.0,-66.0,107.0,1154.0,-1.6875,-28.0625,-57.5625,3.4375,-7.9375,6.625,176.0625,-2.3125,-4.0625,0.021484375,-0.0350341796875,-0.99859619140625,0.0343017578125,-26.0,37.0,176.0,-39.0,70.0,977.0,878,810.5941996624862,-204.10833642135148,
256,7.072155952453613,0.028198957443237305,35.46230395265272,36.198296774151785,101404.0,25.0,93.0,1066.0,-1.6875,-28.0625,-57.5625,-4.3125,2.375,3.5625,175.75,-2.25,-4.0,0.02130126953125,-0.03460693359375,-0.99853515625,0.03668212890625,64.0,23.0,89.0,-38.0,69.0,977.0,952,838.875359729989,-83.40599333447543,
257,7.0984508991241455,0.026294946670532227,38.03012086427477,36.20508244012935,101404.0,32.0,97.0,1063.0,-2.0625,-27.75,-57.5625,-3.5625,1.25,0.5625,175.75,-2.25,-3.9375,0.0213623046875,-0.033935546875,-0.99853515625,0.03668212890625,71.0,29.0,85.0,-39.0,68.0,977.0,975,866.1002877839912,28.471336440461172,
258,7.1259050369262695,0.027454137802124023,36.4243818985506,36.20592734018348,101406.0,-9.0,62.0,858.0,-2.0625,-27.75,-57.5625,1.3125,-7.0,-4.5625,175.9375,-2.1875,-4.0,0.02044677734375,-0.0345458984375,-0.99859619140625,0.03521728515625,19.0,-8.0,-145.0,-37.0,69.0,977.0,1018,896.480230227193,136.28126535713193,
259,7.150824069976807,0.02491903305053711,40.12996804378193,36.21960175015745,101406.0,-3.0,59.0,850.0,-1.25,-28.875,-58.875,-0.1875,-11.5625,-3.25,175.9375,-2.0625,-4.0,0.01953125,-0.0345458984375,-0.99859619140625,0.034912109375,31.0,-10.0,-126.0,-35.0,69.0,977.0,1041,925.3841841817546,238.64461367496858,
260,7.181602954864502,0.030778884887695312,32.489806035818305,36.203616606775434,101406.0,7.0,45.0,717.0,-1.25,-28.875,-58.875,11.125,-8.375,-0.1875,176.0625,-1.625,-4.25,0.015869140625,-0.03662109375,-0.99859619140625,0.0343017578125,39.0,-25.0,-394.0,-28.0,72.0,977.0,1088,957.9073473454038,320.4472785932951,
261,7.206455945968628,0.024852991104125977,40.23660555827362,36.217525224171574,101406.0,81.0,60.0,543.0,-1.6875,-26.5625,-59.25,9.125,-16.25,3.0625,176.0,-1.1875,-4.5,0.01202392578125,-0.0390625,-0.99853515625,0.03466796875,130.0,-2.0,-467.0,-20.0,77.0,977.0,1107,987.725877876323,408.3821958639593,
262,7.234544992446899,0.028089046478271484,35.60106608722223,36.21513174270621,101406.0,75.0,60.0,488.0,-1.6875,-26.5625,-59.25,6.3125,-12.6875,-6.1875,176.0625,-0.9375,-4.625,0.00958251953125,-0.040283203125,-0.99859619140625,0.0338134765625,91.0,-18.0,-488.0,-16.0,79.0,977.0,1134,1016.9807023010585,471.69427004907254,
263,7.262471914291382,0.027926921844482422,35.80774156094729,36.21356517502782,101406.0,41.0,94.0,426.0,-3.875,-26.375,-57.5625,5.0625,1.0625,-12.125,176.4375,-1.0,-4.75,0.01007080078125,-0.04144287109375,-0.99859619140625,0.03070068359375,58.0,-55.0,-535.0,-17.0,81.0,977.0,1153,1044.184561840847,521.9357202302709,
264,7.290879964828491,0.028408050537109375,35.201289109708604,36.20962096119357,101406.0,-41.0,40.0,458.0,-2.375,-27.0625,-58.375,10.125,17.4375,-14.1875,176.9375,-1.5625,-4.875,0.014892578125,-0.04248046875,-0.9986572265625,0.02655029296875,-14.0,-43.0,-517.0,-26.0,82.0,976.0,1200,1075.3476494726776,579.4402339351694,
265,7.318512916564941,0.027632951736450195,36.188678268522274,36.209541886602544,101406.0,15.0,71.0,422.0,-2.375,-27.0625,-58.375,23.375,7.4375,-7.375,177.1875,-1.8125,-5.5,0.0172119140625,-0.04791259765625,-0.9984130859375,0.02447509765625,19.0,-60.0,-501.0,-31.0,94.0,975.0,1186,1097.4781195781422,601.5834567994334,
266,7.345166921615601,0.02665400505065918,37.51781385571805,36.21428931958052,101406.0,-40.0,48.0,537.0,-2.75,-26.6875,-57.5625,25.1875,-1.375,-3.0625,177.25,-1.8125,-6.0,0.01739501953125,-0.05194091796875,-0.99822998046875,0.023681640625,-8.0,-54.0,-437.0,-31.0,102.0,974.0,1228,1123.5824956625138,639.3630233948011,
267,7.373784780502319,0.02861785888671875,34.94321514262863,36.20935624619781,101406.0,-1.0,45.0,555.0,-2.75,-26.6875,-57.5625,36.3125,-10.6875,4.3125,177.1875,-1.5,-7.25,0.0147705078125,-0.0631103515625,-0.99761962890625,0.0242919921875,40.0,-95.0,-420.0,-25.0,124.0,972.0,1247,1148.265996530011,661.6788091839428,
268,7.401518821716309,0.027734041213989258,36.05677197506985,36.2087845015916,101406.0,16.0,44.0,590.0,-1.6875,-28.5625,-57.5625,28.625,-9.5,4.3125,177.125,-1.375,-7.5,0.0140380859375,-0.0655517578125,-0.9974365234375,0.0245361328125,45.0,-84.0,-381.0,-24.0,128.0,971.0,1261,1170.8127972240088,676.8074134046308,
269,7.428185939788818,0.026667118072509766,37.499365221278495,36.21341767430873,101406.0,-2.0,23.0,793.0,-1.6875,-28.5625,-57.5625,29.6875,-12.1875,-1.1875,177.1875,-1.0,-8.3125,0.0098876953125,-0.07550048828125,-0.996826171875,0.0240478515625,-11.0,-123.0,-303.0,-15.0,148.0,969.0,1247,1186.0502377792072,666.2661069058582,
270,7.45512580871582,0.026939868927001953,37.11970547108696,36.21669263908891,101406.0,-60.0,52.0,686.0,-2.75,-31.1875,-56.5,31.6875,-16.0,-3.5,177.3125,-0.625,-9.3125,0.00640869140625,-0.0833740234375,-0.9962158203125,0.0228271484375,-44.0,-94.0,-268.0,-8.0,163.0,966.0,1238,1196.4401902233658,638.2066936738489,
271,7.485368967056274,0.0302431583404541,33.065329643907326,36.20396017787411,101397.75,-27.0,75.0,755.0,-2.75,-31.1875,-56.5,5.375,-4.25,-5.1875,177.4375,-0.375,-9.75,0.00537109375,-0.08514404296875,-0.99609375,0.02191162109375,-20.0,-90.0,-211.0,-6.0,166.0,966.0,1242,1205.5521521786927,604.5150268820267,
272,7.514890909194946,0.029521942138671875,33.87311022095878,36.194803528976145,101397.75,12.0,90.0,942.0,-3.5625,-30.75,-55.5625,-18.625,-1.75,-6.4375,177.5625,-0.375,-9.5625,0.00543212890625,-0.08221435546875,-0.99639892578125,0.02020263671875,20.0,-70.0,-24.0,-7.0,160.0,967.0,1256,1215.6417217429541,578.2400343870498,
273,7.544005870819092,0.029114961624145508,34.346602029201506,36.1876706718892,101397.75,-48.0,118.0,1047.0,-4.5625,-30.75,-54.875,-18.75,2.625,-7.875,177.875,-0.5,-8.75,0.00579833984375,-0.0765380859375,-0.99688720703125,0.0179443359375,-40.0,-31.0,78.0,-8.0,149.0,969.0,1270,1226.5133773943635,557.7564739540925,
274,7.5712730884552,0.0272672176361084,36.67407556375528,36.189422412698285,101397.75,0.0,142.0,1007.0,-4.5625,-30.75,-54.875,-9.0,-2.125,-1.6875,178.0,-0.5,-8.5625,0.00506591796875,-0.07415771484375,-0.9970703125,0.017333984375,7.0,-2.0,37.0,-7.0,145.0,969.0,1223,1225.8107019154909,499.4038291977861,
275,7.595848083496094,0.024574995040893555,40.69176813000242,36.2039889393664,101397.75,10.0,174.0,965.0,-2.75,-30.0625,-57.25,-3.25,-14.125,0.3125,178.0,-0.125,-8.4375,0.002685546875,-0.07354736328125,-0.99713134765625,0.01727294921875,13.0,30.0,-4.0,-2.0,143.0,970.0,1223,1225.2485615323926,447.17599766545294,
276,7.624330043792725,0.02848196029663086,35.10994291071638,36.19990194741147,101397.75,19.0,168.0,963.0,-2.75,-30.0625,-57.25,-4.9375,-13.125,-1.625,178.0625,0.1875,-8.25,-0.0008544921875,-0.072509765625,-0.99725341796875,0.0167236328125,15.0,26.0,-6.0,5.0,141.0,970.0,1209,1221.9988492259142,391.0486765432368,
277,7.655529975891113,0.031199932098388672,32.051351805719,36.18299462902395,101397.75,-13.0,126.0,981.0,-5.0,-30.0625,-56.5,-8.0625,1.125,-6.0625,178.1875,0.3125,-8.125,-0.0018310546875,-0.0709228515625,-0.99737548828125,0.01556396484375,-19.0,-12.0,10.0,5.0,138.0,970.0,,1221.9988492259142,391.0486765432368,
278,7.67797589302063,0.0224459171295166,44.551532210951194,36.207459345203894,101397.75,-59.0,111.0,1027.0,-5.0,-30.0625,-56.5,-8.75,-3.0,-8.25,178.3125,0.3125,-7.9375,-0.00201416015625,-0.06939697265625,-0.99749755859375,0.01416015625,-65.0,-24.0,55.0,5.0,135.0,971.0,1219,1221.3990793807313,349.2717423312308,
279,7.704699993133545,0.02672410011291504,37.41940779202241,36.211663043161415,101397.75,-20.0,109.0,993.0,-4.1875,-29.6875,-56.0625,0.5625,-11.625,-1.6875,178.5,0.5625,-7.8125,-0.00439453125,-0.068603515625,-0.99755859375,0.01287841796875,-30.0,-24.0,22.0,10.0,134.0,971.0,1228,1222.7192635045851,319.28461890721155,
280,7.739582061767578,0.0348820686340332,28.668024551282926,36.17766408643171,101397.75,-25.0,118.0,987.0,-4.1875,-29.375,-56.5,-0.8125,-1.625,-1.375,178.5625,0.75,-7.8125,-0.00628662109375,-0.068359375,-0.99755859375,0.01226806640625,-39.0,-15.0,16.0,13.0,133.0,971.0,1200,1218.175410803668,274.3298289377599,
281,7.763164043426514,0.023581981658935547,42.40525730462036,36.196581500546515,101397.75,-34.0,113.0,933.0,-4.1875,-29.375,-56.5,-0.9375,3.625,-0.4375,178.5625,0.75,-7.8125,-0.006103515625,-0.0682373046875,-0.99755859375,0.01214599609375,-48.0,-19.0,-37.0,13.0,133.0,971.0,1200,1214.5403286429346,231.48218660905033,
282,7.789997816085815,0.026833772659301758,37.26647060391474,36.20026688809709,101397.75,37.0,123.0,909.0,-3.875,-28.5625,-55.5625,-0.1875,-2.1875,-1.4375,178.5625,0.6875,-7.8125,-0.005615234375,-0.068359375,-0.99755859375,0.01226806640625,24.0,-9.0,-61.0,12.0,133.0,971.0,1228,1217.2322629143478,218.36585688747428,
283,7.81747579574585,0.02747797966003418,36.39277750301516,36.200943551882084,101397.75,-10.0,122.0,911.0,-3.875,-28.5625,-55.5625,-3.25,-1.8125,-4.25,178.625,0.75,-7.75,-0.00592041015625,-0.06805419921875,-0.99761962890625,0.01177978515625,-23.0,-10.0,-59.0,13.0,133.0,971.0,1195,1212.7858103314784,180.34739524611965,
284,7.847285747528076,0.029809951782226562,33.54584426386845,36.19085746806927,101397.75,3.0,134.0,954.0,-4.5625,-30.5,-56.5,-8.1875,7.375,-1.3125,178.6875,0.625,-7.5625,-0.0052490234375,-0.06646728515625,-0.99774169921875,0.01123046875,-8.0,4.0,-17.0,11.0,129.0,971.0,1158,1201.828648265183,125.55593049651611,
285,7.873577117919922,0.026291370391845703,38.03529390427481,36.19701639187001,101393.25,-1.0,123.0,972.0,-4.5625,-30.5,-56.5,-6.0,1.8125,-1.625,178.6875,0.5,-7.375,-0.0037841796875,-0.064453125,-0.99786376953125,0.01092529296875,-10.0,-2.0,0.0,8.0,126.0,972.0,1209,1203.2629186121464,118.45562686535902,
286,7.902139902114868,0.02856278419494629,35.01059256600529,36.19272798795389,101393.25,-3.0,118.0,958.0,-4.5625,-30.5,-57.25,-4.5,0.625,-1.3125,178.75,0.5625,-7.25,-0.00433349609375,-0.06353759765625,-0.9979248046875,0.010498046875,-13.0,-5.0,-14.0,9.0,124.0,972.0,1205,1203.6103348897173,107.82638915330608,
287,7.928539991378784,0.026400089263916016,37.87865980312472,36.198341726481004,101393.25,-11.0,122.0,1004.0,-4.5625,-30.5,-57.25,-9.3125,11.8125,-0.8125,178.75,0.25,-7.0,-0.00177001953125,-0.06121826171875,-0.998046875,0.01043701171875,-15.0,2.0,31.0,6.0,121.0,973.0,1209,1204.688267911774,101.12681606127924,
288,7.956118822097778,0.02757883071899414,36.25969535072704,36.19855440068245,101393.25,-20.0,116.0,1033.0,-3.5625,-29.6875,-56.5,-2.875,1.9375,0.875,178.75,0.125,-6.875,-0.0009765625,-0.0604248046875,-0.99810791015625,0.01055908203125,-23.0,-2.0,59.0,3.0,118.0,973.0,1195,1202.750614329419,83.98826159600807,
289,7.9834020137786865,0.027283191680908203,36.65260324728665,36.20010610779842,101393.25,7.0,116.0,972.0,-3.5625,-29.6875,-56.5,3.125,-6.0625,2.0625,178.6875,0.3125,-7.0,-0.00238037109375,-0.06109619140625,-0.998046875,0.0108642578125,1.0,-3.0,0.0,6.0,119.0,973.0,,1202.750614329419,83.98826159600807,
290,8.007143020629883,0.02374100685119629,42.12121272984725,36.21766206159099,101393.25,24.0,110.0,961.0,-3.875,-28.5625,-56.0625,-2.1875,2.875,1.0625,178.6875,0.3125,-6.9375,-0.0023193359375,-0.0609130859375,-0.998046875,0.01116943359375,18.0,-8.0,-11.0,5.0,119.0,973.0,1200,1202.2004914635354,73.27225121026355,
