Index,Time,Difference,Hz,AveHz,Pressure,Acceleration-X,Acceleration-Y,Acceleration-Z,Magnetic-X,Magnetic-Y,Magnetic-Z,Angular-Vel-X,Angular-Vel-Y,Angular-Vel-Z,Heading,Roll,Pitch,Quaternion-X,Quaternion-Y,Quaternion-Z,Quaternion-W,Linear-Acceleration-X,Linear-Acceleration-Y,Linear-Acceleration-Z,Gravity-X,Gravity-Y,Gravity-Z,Position-X,Position-Y,Position-Z
0,0.0,0.0,0,0,2.4693164425567427e-38,-134.0,975.0,-50.0,31.0625,26.5,3.5625,4.3125,3.0,-3.625,270.625,-8.25,-92.625,0.435546875,0.577392578125,0.485595703125,0.4910888671875,3.0,4.0,2.0,-141.0,969.0,-45.0,18021,-3295,25828,
1,0.06447601318359375,0.06447601318359375,15.509643829132647,15.509643829132647,2.4693164425567427e-38,-146.0,978.0,-66.0,29.5625,25.75,3.0625,1.1875,4.0625,-2.4375,270.6875,-8.4375,-92.9375,0.4349365234375,0.57989501953125,0.48406982421875,0.4901123046875,-1.0,10.0,-16.0,-144.0,968.0,-49.0,14399,-2560,8872,
2,0.13306427001953125,0.0685882568359375,14.579755283648499,15.030330829654263,2.4691012031126224e-38,-138.0,971.0,-49.0,29.875,26.5,3.5625,0.9375,0.75,-0.8125,270.5625,-8.5,-93.0,0.4339599609375,0.5814208984375,0.4840087890625,0.4892578125,5.0,0.0,4.0,-146.0,968.0,-51.0,8485,1018,9872,
3,0.19898724555969238,0.06592297554016113,15.169218194509241,15.076343167432091,2.4691012031126224e-38,-140.0,971.0,-41.0,30.25,25.0,4.375,-0.0625,-1.3125,1.375,270.5625,-8.5,-93.0,0.4342041015625,0.58111572265625,0.484130859375,0.4892578125,5.0,3.0,10.0,-145.0,968.0,-51.0,3991,-1263,7374,
4,0.2652103900909424,0.06622314453125,15.100460829493088,15.082365357663301,2.4691012031126224e-38,-121.0,965.0,-35.0,29.875,27.25,3.0625,1.875,-3.625,-0.4375,270.6875,-8.4375,-93.0,0.4354248046875,0.580078125,0.4837646484375,0.48980712890625,12.0,1.0,1.0,-144.0,968.0,-51.0,1030,1296,6051,
5,0.3335561752319336,0.06834578514099121,14.631480170095198,14.989978813983344,2.4691012031126224e-38,-133.0,974.0,-52.0,30.6875,25.375,4.0,0.5625,0.0,-0.6875,270.8125,-8.4375,-93.0,0.43609619140625,0.579833984375,0.48291015625,0.49029541015625,8.0,8.0,9.0,-144.0,968.0,-51.0,-455,638,3903,
6,0.39859628677368164,0.06504011154174805,15.375127383631845,15.052824622540276,2.4691012031126224e-38,-145.0,965.0,-49.0,29.5625,25.0,2.6875,1.9375,-0.25,-0.625,270.875,-8.5,-93.125,0.4364013671875,0.5802001953125,0.4822998046875,0.49017333984375,0.0,-2.0,3.0,-145.0,968.0,-53.0,-955,1783,3745,
7,0.4680027961730957,0.06940650939941406,14.407870510319052,14.957175592196627,2.470679625702838e-38,-141.0,972.0,-59.0,30.25,25.75,3.0625,1.375,-0.25,-0.25,270.9375,-8.5,-93.1875,0.4365234375,0.58056640625,0.4818115234375,0.49017333984375,3.0,4.0,-4.0,-145.0,968.0,-54.0,-1688,970,2483,
8,0.5346226692199707,0.066619873046875,15.010535959688502,14.963824881709977,2.470679625702838e-38,-140.0,965.0,-59.0,29.875,25.75,4.375,1.3125,0.125,0.625,270.9375,-8.5,-93.25,0.43701171875,0.58087158203125,0.48138427734375,0.48974609375,3.0,-1.0,1.0,-145.0,968.0,-55.0,-1919,1836,2886,
9,0.6005780696868896,0.06595540046691895,15.161760718920462,14.985562167949514,2.470679625702838e-38,-146.0,965.0,-52.0,29.5625,25.0,3.5625,1.125,-1.625,0.4375,270.9375,-8.4375,-93.3125,0.43756103515625,0.5809326171875,0.4810791015625,0.489501953125,-1.0,-3.0,3.0,-144.0,968.0,-56.0,-1830,1148,1739,
12,0.7562384605407715,0.05085587501525879,19.663411546846067,15.868010721669766,2.470679625702838e-38,-127.0,960.0,-59.0,30.25,25.75,2.25,1.125,-0.0625,1.0,271.125,-8.4375,-93.375,0.43914794921875,0.58038330078125,0.4801025390625,0.48968505859375,16.0,-8.0,0.0,-143.0,968.0,-58.0,-1513,2123,612,
13,0.8249309062957764,0.06869244575500488,14.55764151369062,15.758895564204854,2.4689577101498756e-38,-130.0,948.0,-63.0,29.5625,25.0,1.75,2.1875,0.0,-1.3125,271.125,-8.375,-93.5625,0.43975830078125,0.58099365234375,0.47943115234375,0.4891357421875,12.0,-19.0,-2.0,-143.0,968.0,-60.0,-1068,1387,1466,
14,0.8937921524047852,0.06886124610900879,14.521956201852333,15.66359691381538,2.4689577101498756e-38,-145.0,981.0,-66.0,29.1875,25.75,2.6875,1.4375,-1.625,-2.875,271.25,-8.5,-93.6875,0.44000244140625,0.58197021484375,0.47808837890625,0.489013671875,0.0,14.0,-3.0,-145.0,967.0,-63.0,-692,2073,669,
15,0.9584617614746094,0.06466960906982422,15.463213932842754,15.650076615390738,2.4689577101498756e-38,-127.0,968.0,-57.0,29.875,25.75,2.6875,1.0,0.1875,-0.3125,271.3125,-8.5625,-93.8125,0.44024658203125,0.58251953125,0.47735595703125,0.4888916015625,18.0,1.0,7.0,-146.0,967.0,-65.0,-268,2019,613,
16,1.0253639221191406,0.06690216064453125,14.947200364921883,15.60421588359816,2.4689577101498756e-38,-130.0,971.0,-63.0,29.875,25.375,2.6875,1.5,1.3125,-1.0625,271.3125,-8.5625,-93.9375,0.4403076171875,0.58319091796875,0.47705078125,0.48834228515625,16.0,4.0,2.0,-146.0,967.0,-66.0,-6,2212,506,
17,1.0934085845947266,0.06804466247558594,14.696229852838123,15.547710379739769,2.4689577101498756e-38,-141.0,969.0,-66.0,30.25,26.5,2.25,1.75,2.0,-0.5625,271.25,-8.5625,-94.0625,0.44024658203125,0.5841064453125,0.4766845703125,0.487548828125,5.0,2.0,2.0,-146.0,967.0,-68.0,114,2279,469,
18,1.160545825958252,0.06713724136352539,14.894862816679332,15.509943336479253,2.4689577101498756e-38,-148.0,977.0,-53.0,29.5625,26.5,2.6875,0.625,1.3125,0.625,271.0625,-8.5625,-94.0625,0.43963623046875,0.5848388671875,0.47747802734375,0.486572265625,-2.0,10.0,15.0,-146.0,967.0,-69.0,191,2361,468,
19,1.2243330478668213,0.06378722190856934,15.677121060913572,15.518653223568588,2.4709666116283316e-38,-151.0,963.0,-85.0,29.5625,26.0625,2.6875,-1.1875,-1.5,1.75,271.0,-8.5,-94.0,0.4400634765625,0.5841064453125,0.47784423828125,0.48663330078125,-5.0,-3.0,-17.0,-145.0,967.0,-68.0,233,2425,508,
20,1.2922728061676025,0.06793975830078125,14.71892195395845,15.476608270750907,2.4709666116283316e-38,-136.0,959.0,-55.0,29.875,26.0625,2.25,-1.9375,-0.25,-0.125,271.0,-8.4375,-93.875,0.4398193359375,0.5831298828125,0.47857666015625,0.48736572265625,8.0,-8.0,10.0,-144.0,967.0,-65.0,279,2474,576,
21,1.361452579498291,0.06917977333068848,14.455092172966044,15.424701760628865,2.4709666116283316e-38,-121.0,972.0,-50.0,29.875,26.0625,3.0625,1.25,0.9375,-1.125,271.0,-8.4375,-93.875,0.43963623046875,0.58319091796875,0.47857666015625,0.4874267578125,23.0,4.0,15.0,-144.0,967.0,-65.0,307,2493,667,
22,1.4311861991882324,0.0697336196899414,14.340285280562355,15.37186427068566,2.4709666116283316e-38,-118.0,902.0,-50.0,30.25,26.5,2.6875,10.9375,2.8125,3.625,270.875,-8.4375,-94.25,0.44091796875,0.5853271484375,0.477294921875,0.48492431640625,25.0,-65.0,21.0,-144.0,967.0,-72.0,304,2529,758,
23,1.498577356338501,0.06739115715026855,14.838742088523627,15.347889718683781,2.4709666116283316e-38,-177.0,1000.0,-116.0,29.1875,27.25,2.6875,14.875,-1.25,2.375,270.8125,-8.1875,-95.25,0.44598388671875,0.588623046875,0.47332763671875,0.48016357421875,-8.0,34.0,-17.0,-140.0,966.0,-89.0,292,2554,845,
24,1.5619587898254395,0.06338143348693848,15.777491056684259,15.365322155959172,2.4709666116283316e-38,-99.0,992.0,-71.0,30.25,25.375,2.6875,2.75,1.25,2.3125,270.75,-8.0625,-95.625,0.44879150390625,0.5892333984375,0.47174072265625,0.47845458984375,38.0,26.0,23.0,-137.0,966.0,-95.0,270,2585,948,
25,1.6268558502197266,0.06489706039428711,15.409018435109736,15.367065248358328,2.470679625702838e-38,-99.0,988.0,-91.0,29.5625,25.375,0.875,3.9375,0.75,4.25,270.4375,-7.6875,-95.75,0.45086669921875,0.58880615234375,0.472412109375,0.47625732421875,32.0,21.0,6.0,-132.0,966.0,-98.0,249,2583,1035,
26,1.6935930252075195,0.06673717498779297,14.984152388573715,15.351976308956614,2.470679625702838e-38,-117.0,960.0,-112.0,29.875,25.0,3.0625,6.625,-2.5,0.0625,270.4375,-7.625,-96.0625,0.45306396484375,0.58941650390625,0.4710693359375,0.47479248046875,14.0,-6.0,-13.0,-130.0,966.0,-103.0,240,2586,1106,
27,1.758044958114624,0.06445193290710449,15.515438480973325,15.357969018582748,2.470679625702838e-38,-111.0,949.0,-89.0,30.6875,25.75,1.75,8.0625,-1.3125,0.8125,270.6875,-7.625,-96.4375,0.4556884765625,0.59027099609375,0.46826171875,0.4739990234375,18.0,-16.0,20.0,-130.0,965.0,-109.0,226,2592,1177,
28,1.8245339393615723,0.06648898124694824,15.040086060062752,15.346384847079117,2.470679625702838e-38,-94.0,976.0,-103.0,29.5625,26.5,2.6875,12.375,-1.25,0.25,270.6875,-7.4375,-97.125,0.4595947265625,0.5921630859375,0.46514892578125,0.47088623046875,36.0,5.0,-8.0,-127.0,964.0,-121.0,255,2594,1249,
29,1.8929827213287354,0.06844878196716309,14.609463766349117,15.319738354317424,2.470679625702838e-38,-87.0,977.0,-126.0,30.25,25.75,2.25,9.75,2.3125,-4.4375,270.625,-7.4375,-97.8125,0.46197509765625,0.59527587890625,0.462158203125,0.467529296875,34.0,11.0,18.0,-127.0,963.0,-133.0,267,2613,1298,
30,1.9605281352996826,0.06754541397094727,14.804854115338186,15.301999221456853,2.470679625702838e-38,-116.0,973.0,-143.0,29.875,26.0625,0.5,4.375,9.0,-3.0,270.4375,-7.5,-98.1875,0.46136474609375,0.5985107421875,0.46112060546875,0.46502685546875,12.0,11.0,-4.0,-128.0,962.0,-139.0,294,2618,1356,
31,2.0311429500579834,0.07061481475830078,14.16133432372206,15.262342810049404,2.4687424707057553e-38,-125.0,985.0,-151.0,30.25,27.5625,0.875,-6.0,12.3125,-0.5,269.5,-7.4375,-98.1875,0.45703125,0.601806640625,0.4649658203125,0.46124267578125,-11.0,22.0,-10.0,-127.0,962.0,-139.0,308,2602,1407,
32,2.101219415664673,0.07007646560668945,14.270126087873654,15.229252005496784,2.4687424707057553e-38,-140.0,957.0,-127.0,30.25,26.5,2.25,-7.0,9.625,-0.9375,268.75,-7.375,-97.8125,0.45233154296875,0.60260009765625,0.46990966796875,0.4598388671875,-14.0,-6.0,4.0,-126.0,963.0,-132.0,324,2574,1437,
33,2.174166440963745,0.07294702529907227,13.708578189448362,15.17823078226341,2.4687424707057553e-38,-170.0,997.0,-120.0,30.25,26.0625,3.5625,-11.3125,10.3125,-0.375,267.875,-7.3125,-97.1875,0.4461669921875,0.60260009765625,0.47637939453125,0.45916748046875,-58.0,17.0,-14.0,-125.0,964.0,-122.0,329,2585,1491,
34,2.2423136234283447,0.06814718246459961,14.674120981002694,15.162910149926448,2.4687424707057553e-38,-174.0,942.0,-128.0,31.75,26.5,3.0625,-5.1875,-3.1875,1.0,267.6875,-7.25,-96.625,0.4439697265625,0.600341796875,0.479736328125,0.4608154296875,-43.0,-27.0,-7.0,-124.0,966.0,-112.0,342,2581,1548,
35,2.3146283626556396,0.07231473922729492,13.828439550295078,15.121217973775925,2.4687424707057553e-38,-171.0,944.0,-102.0,31.375,27.25,2.6875,-2.75,-6.8125,1.1875,268.3125,-7.5,-96.4375,0.44476318359375,0.598388671875,0.4779052734375,0.4644775390625,-42.0,-21.0,6.0,-128.0,966.0,-110.0,344,2540,1587,
36,2.382178783416748,0.0675504207611084,14.803756789857657,15.112215863313738,2.4707513721842113e-38,-147.0,953.0,-120.0,31.375,26.0625,2.6875,2.5625,-3.875,3.5,268.625,-7.4375,-96.4375,0.44647216796875,0.59710693359375,0.4766845703125,0.4656982421875,-15.0,-10.0,-1.0,-127.0,966.0,-110.0,355,2496,1655,
37,2.449284076690674,0.06710529327392578,14.901954096496837,15.106455127896877,2.4707513721842113e-38,-168.0,961.0,-113.0,31.375,26.0625,3.0625,1.375,-1.375,1.125,268.75,-7.4375,-96.5625,0.44775390625,0.59710693359375,0.47564697265625,0.46563720703125,-41.0,-4.0,-1.0,-127.0,965.0,-111.0,349,2451,1694,
38,2.5144827365875244,0.06519865989685059,15.337738560609662,15.112452134617108,2.4707513721842113e-38,-149.0,953.0,-112.0,31.0625,26.5,3.0625,5.1875,-1.6875,0.3125,269.0,-7.5,-96.75,0.44873046875,0.59759521484375,0.47393798828125,0.4658203125,-20.0,-11.0,1.0,-128.0,965.0,-114.0,356,2410,1750,
39,2.582608938217163,0.06812620162963867,14.678640171903325,15.101008682686057,2.4707513721842113e-38,-153.0,974.0,-133.0,31.375,26.875,3.0625,5.9375,-1.75,-1.5625,269.25,-7.625,-97.125,0.45025634765625,0.599365234375,0.470947265625,0.465087890625,-23.0,10.0,-12.0,-130.0,964.0,-121.0,360,2376,1757,
40,2.6489837169647217,0.0663747787475586,15.065963591430911,15.100130568500852,2.4707513721842113e-38,-141.0,972.0,-129.0,31.375,27.5625,3.0625,5.9375,-6.4375,-0.0625,269.6875,-7.75,-97.5625,0.45281982421875,0.6002197265625,0.46722412109375,0.4652099609375,-8.0,9.0,-1.0,-132.0,963.0,-128.0,358,2353,1709,
41,2.717395544052124,0.06841182708740234,14.617355544713181,15.08797645957042,2.4707513721842113e-38,-118.0,968.0,-138.0,31.0625,26.5,2.6875,6.3125,-5.0625,0.375,270.1875,-7.8125,-97.9375,0.45611572265625,0.600341796875,0.4635009765625,0.46551513671875,15.0,6.0,-3.0,-133.0,962.0,-134.0,351,2362,1718,
42,2.7845160961151123,0.06712055206298828,14.898566374447649,15.083410743646754,2.468670724224382e-38,-121.0,963.0,-148.0,31.0625,26.75,1.375,7.0,-3.875,-0.1875,270.625,-7.8125,-98.375,0.45947265625,0.6009521484375,0.45977783203125,0.465087890625,11.0,2.0,-6.0,-133.0,961.0,-141.0,345,2356,1689,
43,2.855100631713867,0.07058453559875488,14.167409213890757,15.060765117125785,2.468670724224382e-38,-112.0,967.0,-132.0,31.75,26.0,1.75,3.0,-1.4375,-0.25,270.8125,-7.8125,-98.625,0.461669921875,0.601318359375,0.4576416015625,0.464599609375,21.0,6.0,14.0,-133.0,960.0,-146.0,338,2331,1721,
44,2.9242570400238037,0.06915640830993652,14.459975936262122,15.046556919511369,2.468670724224382e-38,-119.0,970.0,-147.0,30.6875,27.5,0.875,1.125,0.75,-2.6875,270.875,-7.8125,-98.75,0.46185302734375,0.6019287109375,0.4571533203125,0.46417236328125,14.0,10.0,1.0,-133.0,960.0,-148.0,293,2372,1544,
45,2.998661756515503,0.07440471649169922,13.440008203130008,15.006694203580594,2.468670724224382e-38,-114.0,966.0,-127.0,30.25,27.1875,0.875,1.1875,2.875,-1.4375,270.75,-7.875,-98.8125,0.46099853515625,0.6029052734375,0.457275390625,0.46356201171875,20.0,7.0,21.0,-134.0,959.0,-149.0,359,2101,2210,
46,3.066267728805542,0.06760597229003906,14.791592608266328,15.001951580372664,2.468670724224382e-38,-106.0,966.0,-141.0,31.0625,26.375,0.875,2.3125,5.5,-1.3125,270.4375,-7.8125,-98.9375,0.46026611328125,0.6043701171875,0.45794677734375,0.4617919921875,27.0,7.0,9.0,-133.0,959.0,-151.0,253,2399,1322,
47,3.133331537246704,0.06706380844116211,14.911172258839757,15.000008598291984,2.467881512929274e-38,-121.0,944.0,-138.0,29.875,26.75,1.375,2.625,1.5,1.9375,270.125,-7.75,-99.0625,0.4599609375,0.60540771484375,0.45867919921875,0.4599609375,10.0,-15.0,14.0,-132.0,959.0,-153.0,289,2382,1519,
48,3.209507465362549,0.07617592811584473,13.127506611790112,14.955565773883588,2.467881512929274e-38,-77.0,982.0,-177.0,28.75,26.0,1.375,5.375,3.5625,4.8125,269.75,-7.375,-99.4375,0.46282958984375,0.60601806640625,0.458251953125,0.4566650390625,48.0,17.0,-9.0,-125.0,959.0,-160.0,290,2378,1556,
49,3.279937267303467,0.07042980194091797,14.198534887814654,14.939310116831699,2.467881512929274e-38,-52.0,972.0,-175.0,30.6875,25.375,2.25,4.6875,6.75,4.3125,268.5625,-6.6875,-99.8125,0.46551513671875,0.60687255859375,0.4610595703125,0.44989013671875,65.0,13.0,-17.0,-114.0,959.0,-166.0,303,2374,1617,
50,3.3494720458984375,0.0695347785949707,14.381292645294018,14.927725717617795,2.467881512929274e-38,-63.0,958.0,-188.0,30.25,26.0,0.875,3.4375,10.6875,0.75,267.3125,-6.0625,-100.25,0.4666748046875,0.609130859375,0.46380615234375,0.44281005859375,39.0,2.0,-17.0,-104.0,959.0,-174.0,325,2357,1682,
51,3.4179577827453613,0.06848573684692383,14.60158050478677,14.921190734847503,2.467881512929274e-38,-41.0,970.0,-181.0,31.375,26.75,2.6875,0.9375,10.4375,-0.75,266.3125,-5.75,-100.5,0.4661865234375,0.611328125,0.46636962890625,0.43756103515625,56.0,11.0,-3.0,-98.0,959.0,-178.0,344,2361,1727,
52,3.484281539916992,0.06632375717163086,15.077553544082651,14.924167121477451,2.468885963668502e-38,-28.0,986.0,-173.0,30.6875,26.375,2.6875,-2.6875,14.0,-1.0625,264.75,-5.125,-100.5,0.46429443359375,0.61279296875,0.47222900390625,0.43121337890625,53.0,11.0,0.0,-88.0,960.0,-178.0,340,2359,1734,
53,3.553715705871582,0.06943416595458984,14.402131663164257,14.913967347593793,2.468885963668502e-38,-54.0,974.0,-181.0,30.25,28.6875,1.75,-9.125,21.4375,-3.0,263.1875,-4.875,-100.1875,0.457763671875,0.6153564453125,0.479736328125,0.4261474609375,29.0,12.0,-8.0,-83.0,961.0,-173.0,349,2380,1747,
54,3.620018243789673,0.06630253791809082,15.082378916405663,14.917051894044947,2.468885963668502e-38,-54.0,971.0,-172.0,31.375,26.75,3.0625,-19.9375,45.6875,-5.9375,260.6875,-4.6875,-99.5,0.44390869140625,0.6209716796875,0.49224853515625,0.41839599609375,26.0,7.0,-10.0,-80.0,963.0,-162.0,352,2382,1707,
55,3.6883277893066406,0.06830954551696777,14.639242472365808,14.911906734390142,2.468885963668502e-38,-182.0,880.0,-226.0,31.375,27.5,4.375,-40.625,54.6875,-8.125,256.3125,-4.5625,-97.375,0.41473388671875,0.6260986328125,0.51910400390625,0.4080810546875,-109.0,-141.0,-78.0,-78.0,969.0,-125.0,357,2397,1731,
56,3.757511615753174,0.0691838264465332,14.454245325283102,14.903480208876237,2.468885963668502e-38,-355.0,877.0,-49.0,30.25,28.25,7.375,-39.125,16.0625,4.0625,254.0,-4.5,-95.25,0.396728515625,0.623291015625,0.5379638671875,0.40582275390625,-278.0,-96.0,40.0,-77.0,973.0,-90.0,365,2372,1725,
57,3.8250303268432617,0.06751871109008789,14.810709266439261,14.901842633765787,2.468885963668502e-38,-128.0,1160.0,62.0,31.75,28.0,10.0625,-18.5625,-14.0625,-6.875,254.4375,-4.625,-93.8125,0.3934326171875,0.61517333984375,0.5438232421875,0.4134521484375,-105.0,169.0,155.0,-79.0,975.0,-65.0,359,2375,1653,
58,3.894144058227539,0.06911373138427734,14.46890480330063,14.89415880171606,2.4702491468145973e-38,-72.0,890.0,54.0,31.375,26.75,10.375,-10.625,4.125,-25.4375,256.1875,-6.0,-92.5625,0.38232421875,0.6129150390625,0.54339599609375,0.4276123046875,34.0,-40.0,93.0,-106.0,973.0,-42.0,375,2281,1824,
59,3.9624924659729004,0.06834840774536133,14.630918743939109,14.889618215466786,2.4702491468145973e-38,-101.0,825.0,77.0,30.25,26.75,10.75,-3.8125,-2.5,-18.8125,257.5,-7.5,-91.9375,0.3731689453125,0.6146240234375,0.54180908203125,0.43524169921875,26.0,-146.0,110.0,-128.0,971.0,-33.0,289,2511,1083,
60,4.028780698776245,0.06628823280334473,15.085633719738304,14.892843390116814,2.4702491468145973e-38,-166.0,877.0,124.0,29.5,26.375,10.0,13.25,-14.75,-7.625,259.375,-8.375,-92.25,0.3743896484375,0.6162109375,0.533203125,0.4425048828125,-23.0,-91.0,163.0,-143.0,969.0,-39.0,413,2231,1974,
61,4.099488258361816,0.07070755958557129,14.142759357856013,14.87990601645875,2.4702491468145973e-38,-105.0,913.0,102.0,29.5,27.1875,9.5,17.6875,-13.875,-3.75,261.0,-8.8125,-92.6875,0.3800048828125,0.6156005859375,0.52490234375,0.448486328125,44.0,-54.0,148.0,-150.0,968.0,-45.0,446,2272,1951,
62,4.166203737258911,0.06671547889709473,14.98902528365943,14.88165339719846,2.4702491468145973e-38,-147.0,1012.0,106.0,30.1875,27.5,11.25,25.375,-5.9375,-1.8125,261.75,-8.9375,-94.125,0.38671875,0.6217041015625,0.51495361328125,0.44580078125,5.0,46.0,176.0,-153.0,966.0,-70.0,483,2325,1931,
63,4.233941316604614,0.06773757934570312,14.762854085712677,14.879752762025172,2.4702491468145973e-38,-91.0,1144.0,213.0,30.5625,28.25,10.75,16.875,-14.5,9.375,262.875,-8.75,-95.1875,0.39788818359375,0.6217041015625,0.50579833984375,0.446533203125,58.0,179.0,301.0,-149.0,965.0,-87.0,531,2384,1913,
64,4.3028929233551025,0.06895160675048828,14.502925270743143,14.873714298727462,2.4697469214449833e-38,-299.0,1127.0,-109.0,31.6875,28.5625,10.75,10.1875,-5.5,-6.875,263.1875,-8.8125,-95.9375,0.40045166015625,0.62548828125,0.5013427734375,0.44390869140625,-77.0,193.0,49.0,-150.0,963.0,-101.0,586,2385,1851,
65,4.372423887252808,0.06953096389770508,14.38208165028769,14.865896279978353,2.4697469214449833e-38,-358.0,1180.0,-78.0,34.0,27.75,12.1875,20.5,-16.0625,-6.6875,264.3125,-9.375,-96.875,0.4029541015625,0.62908935546875,0.49383544921875,0.4449462890625,-198.0,291.0,28.0,-158.0,961.0,-113.0,651,2409,1803,
66,4.441205978393555,0.06878209114074707,14.538668182590218,14.860828414869673,2.4697469214449833e-38,-229.0,862.0,-233.0,32.75,27.0,11.6875,-3.4375,-1.5,19.375,264.4375,-9.0625,-97.125,0.40875244140625,0.62786865234375,0.490234375,0.4453125,-73.0,-98.0,-113.0,-155.0,960.0,-120.0,719,2406,1757,
67,4.51105523109436,0.06984925270080566,14.316545436547894,14.852400728364863,2.4697469214449833e-38,-197.0,709.0,-247.0,34.6875,25.6875,11.6875,8.3125,0.625,16.5625,262.875,-7.6875,-97.5,0.41680908203125,0.62548828125,0.49444580078125,0.43658447265625,-66.0,-253.0,-120.0,-131.0,963.0,-127.0,783,2400,1729,
68,4.580791473388672,0.06973624229431152,14.339745978563736,14.844596265740194,2.4697469214449833e-38,-103.0,959.0,-264.0,36.5,22.5625,13.375,6.1875,-7.0625,11.375,262.625,-7.0,-98.25,0.42510986328125,0.62493896484375,0.49169921875,0.4324951171875,16.0,-3.0,-124.0,-120.0,963.0,-139.0,840,2397,1715,
69,4.6457343101501465,0.06494283676147461,15.398157054223724,14.85233450592442,2.4689577101498756e-38,-191.0,909.0,-173.0,36.875,22.25,13.75,8.75,-18.0,16.125,262.8125,-6.1875,-98.3125,0.43524169921875,0.618408203125,0.49066162109375,0.432861328125,-85.0,-55.0,-32.0,-106.0,964.0,-140.0,896,2378,1699,
70,4.714993953704834,0.0692596435546875,14.43842256003525,14.846254457017297,2.4689577101498756e-38,-67.0,886.0,-179.0,37.5625,19.5,14.25,30.25,-17.4375,14.9375,263.3125,-5.375,-99.9375,0.4517822265625,0.61822509765625,0.48046875,0.4276123046875,25.0,-75.0,-10.0,-92.0,961.0,-169.0,922,2369,1622,
71,4.782734632492065,0.06774067878723145,14.762178618565772,14.845063641552098,2.4689577101498756e-38,9.0,931.0,-177.0,38.6875,19.5,14.25,27.6875,-18.5625,16.0625,263.75,-4.75,-101.3125,0.46514892578125,0.6175537109375,0.47210693359375,0.42352294921875,92.0,-27.0,13.0,-80.0,957.0,-195.0,952,2297,1636,
72,4.851665019989014,0.06893038749694824,14.507389792988949,14.840266115520697,2.4689577101498756e-38,-10.0,876.0,-94.0,39.875,19.375,14.6875,16.75,-17.5,5.25,264.75,-4.1875,-102.875,0.48199462890625,0.61566162109375,0.46038818359375,0.42041015625,61.0,-76.0,123.0,-72.0,953.0,-218.0,962,2318,1540,
73,4.921329975128174,0.06966495513916016,14.354419636134649,14.833388610179252,2.4689577101498756e-38,-29.0,949.0,-105.0,39.5,17.5,12.5,8.4375,-14.875,-3.75,265.875,-4.375,-103.625,0.48834228515625,0.6156005859375,0.45257568359375,0.4215087890625,45.0,-1.0,125.0,-75.0,950.0,-230.0,1033,2218,1803,
74,4.987772226333618,0.06644225120544434,15.050664025635228,14.83628294197297,2.4689577101498756e-38,-90.0,959.0,-150.0,41.375,17.375,13.25,-6.5,-33.375,0.4375,268.5,-5.0,-103.1875,0.49407958984375,0.6082763671875,0.44482421875,0.43359375,-6.0,27.0,53.0,-86.0,950.0,-223.0,1069,2323,1423,
75,5.054231405258179,0.06645917892456055,15.046830493273543,14.839051477139257,2.4707513721842113e-38,76.0,1173.0,-8.0,43.1875,16.5,12.875,-14.375,-31.75,6.8125,270.75,-5.3125,-102.5,0.500244140625,0.59808349609375,0.4398193359375,0.44561767578125,167.0,220.0,203.0,-91.0,953.0,-211.0,1212,2010,2378,
76,5.126779556274414,0.07254815101623535,13.783948811820341,14.824120905878882,2.4707513721842113e-38,-38.0,1227.0,-288.0,43.5,13.5,12.0,-30.5625,-3.125,24.4375,272.125,-4.8125,-101.0625,0.50830078125,0.58087158203125,0.44091796875,0.45806884765625,43.0,268.0,-100.0,-82.0,958.0,-187.0,1127,2361,1181,
77,5.192406415939331,0.06562685966491699,15.23766343698117,14.829347672714931,2.4707513721842113e-38,-105.0,814.0,-541.0,46.375,12.0,13.25,-30.375,-5.9375,14.375,270.3125,-3.0625,-99.5,0.51092529296875,0.567138671875,0.4554443359375,0.45806884765625,-103.0,-242.0,-321.0,-53.0,965.0,-162.0,1258,2352,1326,
78,5.2594804763793945,0.06707406044006348,14.908893146458418,14.83036211471877,2.4707513721842113e-38,-127.0,1055.0,-80.0,47.1875,8.5625,14.25,-12.9375,-8.3125,5.5625,270.125,-2.625,-98.0625,0.50897216796875,0.557861328125,0.462890625,0.46417236328125,-41.0,61.0,2.0,-45.0,969.0,-137.0,1368,2367,1222,
79,5.3256378173828125,0.06615734100341797,15.115480532210865,14.833903977124585,2.4707513721842113e-38,-46.0,1005.0,-212.0,48.5625,5.1875,15.6875,-3.9375,12.8125,-15.1875,270.75,-3.0,-97.5,0.506591796875,0.5557861328125,0.46282958984375,0.46923828125,5.0,34.0,-83.0,-51.0,970.0,-128.0,1460,2410,1188,
80,5.3944220542907715,0.06878423690795898,14.538214639759863,14.83013364450549,2.4692446960753693e-38,-125.0,887.0,-49.0,48.1875,3.375,14.75,-24.625,32.4375,-20.625,269.875,-4.125,-96.1875,0.486328125,0.5633544921875,0.47265625,0.47198486328125,-54.0,-84.0,56.0,-70.0,972.0,-105.0,1555,2474,1234,
81,5.462043046951294,0.06762099266052246,14.788307013182992,14.829615823919795,2.4692446960753693e-38,-197.0,790.0,-47.0,48.5625,2.75,16.6875,-11.5625,15.75,-16.625,269.4375,-5.0,-95.5,0.4705810546875,0.57080078125,0.47808837890625,0.47344970703125,-108.0,-181.0,68.0,-88.0,972.0,-92.0,1623,2536,1338,
82,5.528528690338135,0.06648564338684082,15.040841135906419,14.832156002609933,2.4692446960753693e-38,-78.0,792.0,2.0,48.875,2.0625,18.5,-1.125,29.8125,-12.6875,268.625,-5.875,-95.3125,0.458984375,0.57952880859375,0.48162841796875,0.47064208984375,23.0,-178.0,93.0,-101.0,971.0,-91.0,1673,2510,1423,
83,5.595477819442749,0.06694912910461426,14.936714089848827,14.8334070258661,2.4692446960753693e-38,-17.0,894.0,49.0,47.6875,0.5625,21.0625,-15.5,38.0,-1.125,266.875,-6.125,-95.4375,0.4476318359375,0.58905029296875,0.48846435546875,0.46258544921875,70.0,-94.0,146.0,-105.0,970.0,-92.0,1708,2497,1501,
84,5.6628851890563965,0.06740736961364746,14.835173152900147,14.833428048714666,2.4692446960753693e-38,-80.0,1004.0,59.0,48.0625,-0.0625,21.5625,-2.375,25.6875,8.6875,264.125,-5.4375,-95.4375,0.441162109375,0.59417724609375,0.4991455078125,0.45074462890625,12.0,32.0,153.0,-93.0,971.0,-93.0,1761,2495,1601,
85,5.731446743011475,0.06856155395507812,14.585433706114728,14.830461454368926,2.4692446960753693e-38,73.0,1280.0,191.0,48.5,-2.6875,25.0625,10.0,28.75,3.75,262.25,-4.9375,-96.125,0.43890380859375,0.60064697265625,0.50335693359375,0.4395751953125,157.0,309.0,296.0,-84.0,971.0,-104.0,1832,2495,1612,
86,5.799752950668335,0.06830620765686035,14.639957835509621,14.828217810568946,2.4670923016341664e-38,-441.0,1316.0,-191.0,47.6875,-3.75,25.5625,20.375,-8.0,-14.5,261.5625,-5.375,-97.0625,0.43341064453125,0.611328125,0.501220703125,0.43267822265625,-348.0,348.0,-70.0,-92.0,968.0,-120.0,1913,2486,1610,
87,5.873918533325195,0.07416558265686035,13.483343138105846,14.811237082436985,2.4670923016341664e-38,-320.0,552.0,-394.0,48.5,-6.375,26.25,11.0625,7.375,-14.3125,263.5625,-6.625,-98.5625,0.43524169921875,0.6202392578125,0.48638916015625,0.43505859375,-206.0,-410.0,-249.0,-114.0,963.0,-145.0,1993,2486,1604,
88,5.941694736480713,0.06777620315551758,14.754441137775526,14.810589217870643,2.4670923016341664e-38,-180.0,1041.0,-380.0,48.0625,-5.1875,25.875,-11.0625,19.3125,-8.25,263.0625,-7.1875,-98.8125,0.42730712890625,0.62744140625,0.4871826171875,0.43170166015625,-57.0,80.0,-231.0,-122.0,961.0,-149.0,2074,2488,1589,
89,6.007964611053467,0.0662698745727539,15.089812776122839,14.813669147827136,2.4670923016341664e-38,-311.0,784.0,-128.0,48.0,-7.875,27.5,-17.5,9.0,22.125,260.9375,-6.4375,-97.75,0.4207763671875,0.62451171875,0.50054931640625,0.4271240234375,-201.0,-181.0,2.0,-110.0,965.0,-131.0,2106,2503,1499,
90,6.077027082443237,0.06906247138977051,14.479644007470595,14.809873113781807,2.4670923016341664e-38,-77.0,882.0,-167.0,48.375,-12.6875,28.375,20.625,-25.5625,7.375,260.75,-5.3125,-98.1875,0.43328857421875,0.61920166015625,0.49884033203125,0.42425537109375,14.0,-84.0,-28.0,-91.0,966.0,-139.0,2190,2422,1667,
91,6.1456544399261475,0.06862735748291016,14.571448423451592,14.807210670486958,2.4717558229234394e-38,8.0,895.0,-95.0,48.0,-12.0,27.0,20.3125,-17.75,8.875,262.125,-5.0625,-99.3125,0.44708251953125,0.6170654296875,0.4881591796875,0.4254150390625,95.0,-68.0,62.0,-86.0,963.0,-158.0,2231,2475,1425,
92,6.2148802280426025,0.06922578811645508,14.445483788754418,14.803181497348938,2.4717558229234394e-38,37.0,871.0,-110.0,49.0625,-13.5,25.6875,20.1875,-5.5,-3.875,262.8125,-4.9375,-100.4375,0.45574951171875,0.6187744140625,0.479736328125,0.4234619140625,122.0,-89.0,66.0,-85.0,960.0,-177.0,2317,2372,1679,
93,6.282510995864868,0.06763076782226562,14.786169552710248,14.802998365018755,2.4717558229234394e-38,-143.0,903.0,-29.0,48.6875,-14.0625,24.75,-9.6875,-25.3125,-3.6875,264.75,-5.625,-100.6875,0.45947265625,0.61883544921875,0.471923828125,0.430419921875,-48.0,-54.0,153.0,-95.0,958.0,-183.0,2325,2497,1261,
94,6.353509426116943,0.0709984302520752,14.08481844527501,14.794972934737537,2.4717558229234394e-38,80.0,1107.0,46.0,50.5625,-14.875,25.1875,-13.6875,-19.0,12.625,266.5625,-5.75,-99.9375,0.46490478515625,0.6080322265625,0.4683837890625,0.4412841796875,179.0,146.0,214.0,-99.0,960.0,-168.0,2404,2789,352,
95,6.424487590789795,0.07097816467285156,14.088839921532797,14.787171530410127,2.4717558229234394e-38,-127.0,1319.0,-184.0,50.1875,-17.0625,22.5,-12.875,-21.875,26.5,267.0,-4.8125,-98.875,0.47412109375,0.59368896484375,0.4715576171875,0.4476318359375,-44.0,353.0,-33.0,-82.0,965.0,-151.0,2561,2702,620,
96,6.496036052703857,0.0715484619140625,13.976540840264448,14.778243104122204,2.4717558229234394e-38,-63.0,949.0,-507.0,50.1875,-23.0,20.25,-32.125,-28.125,35.4375,265.8125,-2.3125,-97.4375,0.48876953125,0.5709228515625,0.483154296875,0.44915771484375,-95.0,-188.0,-281.0,-39.0,971.0,-127.0,2649,2773,371,
97,6.564934730529785,0.06889867782592773,14.514066620066302,14.775470584483964,2.470536132740091e-38,-152.0,1150.0,-42.0,50.6875,-24.875,17.75,-3.0625,-37.0,-1.625,267.1875,-1.9375,-97.125,0.49835205078125,0.56036376953125,0.47906494140625,0.4561767578125,-103.0,216.0,79.0,-33.0,972.0,-122.0,2690,2719,690,
98,6.632430076599121,0.06749534606933594,14.815836324073812,14.775881368997558,2.470536132740091e-38,22.0,915.0,-160.0,50.75,-27.25,14.375,-5.25,8.9375,-3.875,268.5,-2.0,-96.625,0.502197265625,0.552978515625,0.47613525390625,0.4639892578125,56.0,-57.0,-70.0,-33.0,973.0,-114.0,2796,2817,470,
99,6.700974702835083,0.06854462623596191,14.589035711676992,14.773970114842333,2.470536132740091e-38,-109.0,859.0,-64.0,50.1875,-29.5,15.25,-32.0625,48.0,-26.0,266.875,-3.0625,-95.125,0.4779052734375,0.56243896484375,0.48992919921875,0.4639892578125,-61.0,-182.0,52.0,-52.0,975.0,-87.0,2893,2911,278,
100,6.7707788944244385,0.06980419158935547,14.32578728055195,14.769349517874142,2.470536132740091e-38,-140.0,860.0,-10.0,50.1875,-28.75,15.6875,-0.625,32.1875,-13.25,265.25,-4.0625,-94.5,0.45770263671875,0.5745849609375,0.49920654296875,0.45953369140625,-71.0,-114.0,67.0,-69.0,975.0,-77.0,3017,3025,-41,
101,6.8432698249816895,0.07249093055725098,13.794829122937422,14.759026398651502,2.470536132740091e-38,-82.0,855.0,52.0,50.1875,-31.0625,18.0,7.5625,26.3125,-11.5,264.0625,-4.5,-95.125,0.44891357421875,0.58575439453125,0.50115966796875,0.451904296875,-20.0,-114.0,139.0,-77.0,973.0,-87.0,3096,3103,-354,
102,6.912202835083008,0.06893301010131836,14.5068378492422,14.75651140940153,2.46716404811554e-38,-4.0,977.0,159.0,49.75,-31.0625,17.5625,-3.75,-0.9375,-1.625,263.25,-4.875,-95.3125,0.44158935546875,0.5928955078125,0.50335693359375,0.44732666015625,52.0,-21.0,256.0,-84.0,972.0,-91.0,3167,3113,-493,
103,6.985185146331787,0.0729823112487793,13.701950279311358,14.745493189123213,2.46716404811554e-38,-132.0,1376.0,102.0,49.6875,-32.5625,19.0,26.3125,20.8125,4.1875,261.6875,-4.375,-96.0625,0.44140625,0.5982666015625,0.505859375,0.4375,-56.0,404.0,206.0,-75.0,972.0,-103.0,3197,3119,-342,
104,7.0511634349823,0.0659782886505127,15.156501031680357,14.749339021704447,2.46716404811554e-38,48.0,1342.0,-177.0,48.1875,-34.0625,19.0,28.625,5.6875,-14.25,260.9375,-4.6875,-97.375,0.4388427734375,0.6116943359375,0.49981689453125,0.42828369140625,-37.0,443.0,-199.0,-83.0,968.0,-131.0,3338,3183,-694,
105,7.120730876922607,0.06956744194030762,14.37454033250282,14.745677348977166,2.46716404811554e-38,-329.0,880.0,-289.0,47.75,-33.6875,19.875,35.25,-33.875,-16.25,263.875,-5.875,-99.125,0.4483642578125,0.61663818359375,0.47918701171875,0.43487548828125,-224.0,-81.0,-130.0,-104.0,961.0,-159.0,3387,3166,-574,
106,7.184656858444214,0.06392598152160645,15.643091841491842,14.75366215651857,2.46716404811554e-38,-180.0,853.0,-401.0,50.0,-33.1875,18.0625,7.6875,9.1875,-14.3125,265.75,-7.125,-100.5,0.447265625,0.62506103515625,0.46868896484375,0.43536376953125,-58.0,-102.0,-223.0,-122.0,956.0,-178.0,3467,3205,-672,
107,7.249835729598999,0.06517887115478516,15.342395200819372,14.758955097858246,2.46716404811554e-38,-317.0,908.0,-137.0,48.375,-32.6875,19.375,-34.75,17.0,13.0625,264.4375,-6.875,-99.4375,0.4403076171875,0.622802734375,0.4788818359375,0.4346923828125,-237.0,-110.0,51.0,-114.0,961.0,-155.0,3446,3225,-397,
108,7.320512294769287,0.07067656517028809,14.148961506414473,14.753065858132505,2.469172949593996e-38,-153.0,821.0,-168.0,48.6875,-34.5,17.5,18.6875,-20.25,19.6875,262.875,-5.4375,-98.6875,0.44537353515625,0.61419677734375,0.48822021484375,0.43133544921875,-60.0,-143.0,-19.0,-93.0,964.0,-148.0,3446,3308,-220,
109,7.387969970703125,0.06745767593383789,14.824109875661806,14.75371454299865,2.469172949593996e-38,-22.0,840.0,-138.0,47.0625,-34.6875,17.0625,18.0625,-31.0,10.1875,265.0,-5.0,-100.125,0.46551513671875,0.60943603515625,0.47320556640625,0.43359375,64.0,-120.0,34.0,-86.0,961.0,-172.0,3566,3202,-244,
110,7.458481550216675,0.0705115795135498,14.18206778090733,14.748310263877292,2.469172949593996e-38,-1.0,945.0,-84.0,46.75,-36.5625,15.375,17.0,-22.1875,2.875,266.5,-4.75,-101.125,0.4793701171875,0.60540771484375,0.4627685546875,0.4354248046875,80.0,-13.0,104.0,-81.0,958.0,-188.0,3686,3076,-252,
111,7.529127836227417,0.07064628601074219,14.155025783633468,14.742743437813406,2.469172949593996e-38,-17.0,977.0,-93.0,48.375,-37.0,15.375,7.5625,-28.375,-7.625,268.75,-5.4375,-102.0,0.48699951171875,0.6053466796875,0.44976806640625,0.44049072265625,75.0,23.0,109.0,-93.0,954.0,-203.0,3785,2967,-197,
112,7.599284410476685,0.07015657424926758,14.253831671526347,14.73822980563699,2.469172949593996e-38,-90.0,1012.0,-172.0,48.0,-38.0,12.6875,-1.0,-34.625,-4.1875,272.25,-6.1875,-101.625,0.49603271484375,0.59552001953125,0.43792724609375,0.45556640625,15.0,58.0,24.0,-105.0,954.0,-197.0,3843,2883,4,
113,7.666114091873169,0.06682968139648438,14.963411153604659,14.740192833784075,2.468527231261635e-38,-211.0,1411.0,-102.0,48.0,-38.25,10.875,-10.1875,-32.375,20.0625,273.8125,-6.0,-100.5625,0.502197265625,0.58258056640625,0.4365234375,0.46673583984375,-108.0,452.0,77.0,-103.0,958.0,-179.0,3867,2787,367,
114,7.737384080886841,0.07126998901367188,14.031151314028797,14.73366176581654,2.468527231261635e-38,-12.0,1057.0,-441.0,46.5625,-40.875,6.5,-21.9375,-20.625,33.6875,272.8125,-4.0625,-99.0625,0.51171875,0.56317138671875,0.4473876953125,0.469970703125,57.0,92.0,-286.0,-70.0,965.0,-154.0,3907,2710,657,
115,7.8047144412994385,0.06733036041259766,14.852140904519766,14.734683871515635,2.468527231261635e-38,-212.0,906.0,-57.0,45.5625,-43.1875,6.5,-15.375,-3.875,9.5,272.3125,-2.75,-97.6875,0.51708984375,0.5472412109375,0.45587158203125,0.4747314453125,-165.0,-64.0,73.0,-47.0,970.0,-131.0,3972,2629,903,
116,7.873446702957153,0.06873226165771484,14.54920841947524,14.733064739795859,2.468527231261635e-38,39.0,920.0,-180.0,44.375,-43.875,3.5,-3.9375,-12.0,7.3125,272.875,-2.3125,-96.875,0.5206298828125,0.537841796875,0.45684814453125,0.4805908203125,80.0,-52.0,-62.0,-40.0,972.0,-118.0,4025,2606,1182,
117,7.942554712295532,0.0691080093383789,14.47010280825226,14.73077671330073,2.468527231261635e-38,-70.0,960.0,-178.0,43.0,-45.5,2.1875,-24.1875,63.5625,-16.6875,270.5625,-2.75,-96.1875,0.5030517578125,0.5487060546875,0.4697265625,0.474609375,-52.0,-18.0,-25.0,-47.0,973.0,-106.0,4078,2591,1411,
118,8.010111570358276,0.06755685806274414,14.802346181807915,14.73138032641936,2.468527231261635e-38,-137.0,890.0,-47.0,44.25,-46.0,3.5,-2.75,41.125,-14.3125,267.9375,-3.25,-95.5625,0.482666015625,0.56201171875,0.4832763671875,0.46649169921875,-106.0,-55.0,37.0,-56.0,974.0,-95.0,4145,2569,1570,
119,8.082394361495972,0.07228279113769531,13.834551547615906,14.72335977156827,2.468527231261635e-38,-63.0,820.0,3.0,43.5,-46.375,3.5625,-6.8125,38.875,-14.25,266.0625,-3.9375,-95.4375,0.46649169921875,0.57440185546875,0.4915771484375,0.4591064453125,3.0,-153.0,96.0,-67.0,973.0,-93.0,4310,2541,1837,
120,8.152603149414062,0.07020878791809082,14.243231220095288,14.719224988723331,2.468527231261635e-38,-19.0,854.0,68.0,45.375,-44.5625,4.0,-0.875,36.0625,-3.9375,264.125,-4.4375,-95.375,0.45123291015625,0.58587646484375,0.49969482421875,0.4510498046875,13.0,-154.0,197.0,-75.0,973.0,-91.0,4491,2448,2159,
121,8.22422981262207,0.07162666320800781,13.961281388970255,14.712623887807249,2.468527231261635e-38,-61.0,944.0,45.0,44.1875,-44.6875,5.375,4.6875,20.125,6.5,262.375,-4.0,-95.375,0.44683837890625,0.58929443359375,0.5064697265625,0.44329833984375,34.0,36.0,116.0,-68.0,973.0,-91.0,4500,2548,1909,
122,8.290435075759888,0.06620526313781738,15.104539316131588,14.715753622715352,2.468527231261635e-38,107.0,1301.0,252.0,44.1875,-45.0625,6.1875,13.1875,34.5625,-4.375,260.875,-3.75,-96.1875,0.4442138671875,0.59722900390625,0.50811767578125,0.4334716796875,172.0,328.0,358.0,-65.0,972.0,-105.0,4649,2485,2107,
123,8.355934381484985,0.06549930572509766,15.267337400445538,14.72007729890058,2.468527231261635e-38,-283.0,1447.0,-376.0,42.5625,-45.1875,8.0625,23.5625,-6.625,-8.0625,260.0,-4.5625,-97.1875,0.4346923828125,0.6114501953125,0.50628662109375,0.42523193359375,-336.0,424.0,-195.0,-78.0,969.0,-123.0,4727,2492,2108,
124,8.424184799194336,0.06825041770935059,14.651924978079599,14.719525147627222,2.4711101045910785e-38,-208.0,820.0,-288.0,42.0625,-43.875,8.5,19.75,-16.0625,-16.1875,262.0625,-5.5,-98.875,0.44049072265625,0.61865234375,0.49066162109375,0.4271240234375,-113.0,-143.0,-137.0,-94.0,964.0,-150.0,4788,2497,2112,
125,8.49307131767273,0.06888651847839355,14.516628537609325,14.717879471928477,2.4711101045910785e-38,-289.0,971.0,-396.0,42.5,-43.5625,9.75,-15.125,22.0625,-3.375,262.625,-6.375,-98.875,0.43389892578125,0.62335205078125,0.488525390625,0.42950439453125,-180.0,8.0,-245.0,-109.0,962.0,-150.0,4823,2521,2075,
126,8.560319900512695,0.06724858283996582,14.870201835773113,14.719076093459265,2.4711101045910785e-38,-327.0,768.0,-181.0,43.0625,-43.75,9.5,-16.375,-1.75,22.75,260.875,-5.375,-97.5,0.431396484375,0.615966796875,0.5015869140625,0.42767333984375,-199.0,-202.0,-81.0,-92.0,967.0,-128.0,4865,2550,2049,
127,8.627321481704712,0.0670015811920166,14.92502090561338,14.720675503899907,2.4711101045910785e-38,-47.0,891.0,-116.0,41.5625,-45.1875,7.6875,23.1875,-36.0625,17.5,261.0625,-4.0625,-98.0625,0.45147705078125,0.6065673828125,0.49609375,0.42669677734375,15.0,-84.0,13.0,-68.0,968.0,-140.0,4900,2567,1989,
128,8.694398880004883,0.0670773983001709,14.908151260205514,14.722121881752004,2.4711101045910785e-38,42.0,878.0,-149.0,40.75,-46.375,6.375,22.3125,-16.9375,11.5,262.8125,-3.5,-99.4375,0.4677734375,0.602783203125,0.4847412109375,0.4276123046875,103.0,-86.0,12.0,-60.0,965.0,-161.0,4916,2598,1899,
129,8.762073755264282,0.06767487525939941,14.77653259303362,14.722542129081758,2.4711101045910785e-38,-4.0,881.0,-29.0,39.5625,-47.5,8.1875,16.75,-7.375,2.6875,263.1875,-3.25,-100.375,0.4765625,0.60369873046875,0.47772216796875,0.424560546875,52.0,-80.0,150.0,-56.0,962.0,-179.0,5354,2355,2663,
130,8.832237482070923,0.07016372680664062,14.252378622301963,14.71880712717413,2.468885963668502e-38,-55.0,978.0,-95.0,39.375,-47.5,7.6875,9.3125,-30.875,-6.0,264.25,-3.5,-101.4375,0.4822998046875,0.6055908203125,0.46942138671875,0.42462158203125,5.0,19.0,98.0,-60.0,959.0,-194.0,5297,2483,2364,
131,8.898423194885254,0.06618571281433105,15.109000983418767,14.721709355798879,2.468885963668502e-38,-94.0,1100.0,-78.0,38.5625,-46.0,8.1875,0.25,-42.5,-3.1875,269.75,-4.1875,-101.5625,0.5040283203125,0.58843994140625,0.44793701171875,0.4461669921875,-21.0,142.0,118.0,-72.0,958.0,-196.0,5257,2565,2259,
132,8.969444990158081,0.07102179527282715,14.08018476804963,14.716629640389106,2.468885963668502e-38,-106.0,1303.0,-155.0,39.6875,-46.375,5.1875,-6.375,-40.6875,17.8125,273.625,-4.3125,-100.625,0.51910400390625,0.5682373046875,0.4368896484375,0.465576171875,-32.0,342.0,25.0,-74.0,960.0,-181.0,5245,2554,2102,
133,9.038973808288574,0.06952881813049316,14.382525503643377,14.714059673238728,2.468885963668502e-38,-132.0,1189.0,-380.0,39.0,-47.875,2.5,-18.625,-19.4375,33.6875,275.125,-2.625,-100.375,0.54180908203125,0.5445556640625,0.43182373046875,0.47265625,-86.0,226.0,-204.0,-45.0,963.0,-176.0,5272,2607,2005,
134,9.106791257858276,0.06781744956970215,14.745467521190239,14.714293564637382,2.468885963668502e-38,-329.0,672.0,-195.0,37.5625,-49.5625,0.25,-49.4375,-1.4375,10.3125,276.1875,-1.125,-96.9375,0.5472412109375,0.5111083984375,0.4425048828125,0.49346923828125,-309.0,-300.0,-76.0,-19.0,973.0,-118.0,5311,2645,1921,
135,9.173725605010986,0.06693434715270996,14.94001275187627,14.715940481832007,2.468885963668502e-38,150.0,987.0,-126.0,35.0,-50.0,-2.6875,-24.25,-27.0625,16.0625,278.1875,-0.75,-95.0625,0.55133056640625,0.490234375,0.44183349609375,0.5103759765625,163.0,10.0,-39.0,-12.0,976.0,-86.0,5396,2563,1788,
136,9.240629196166992,0.06690359115600586,14.946880768600284,14.717612525390882,2.4687424707057553e-38,5.0,992.0,-22.0,33.875,-50.5625,-4.5,-20.125,17.6875,-17.375,279.3125,-0.5625,-94.0625,0.55316162109375,0.479248046875,0.44085693359375,0.51959228515625,28.0,-2.0,46.0,-10.0,978.0,-69.0,5379,2656,1589,
137,9.308224439620972,0.06759524345397949,14.79394035588946,14.718166809220019,2.4687424707057553e-38,-131.0,872.0,-37.0,34.6875,-49.5,-6.6875,-13.5625,29.0,-32.4375,280.75,-2.375,-92.875,0.53839111328125,0.485107421875,0.43927001953125,0.5308837890625,-90.0,-105.0,12.0,-41.0,978.0,-49.0,5446,2692,1511,
138,9.377062320709229,0.06883788108825684,14.526885258392877,14.716762593677894,2.4687424707057553e-38,-44.0,825.0,125.0,35.75,-48.0625,-6.1875,-8.5625,40.625,-25.1875,280.875,-4.25,-92.0,0.51898193359375,0.49847412109375,0.44207763671875,0.5355224609375,29.0,-152.0,160.0,-73.0,977.0,-34.0,5566,2812,1519,
139,9.445147514343262,0.0680851936340332,14.687481177994888,14.716551519064858,2.4687424707057553e-38,5.0,844.0,200.0,38.375,-46.875,-6.1875,-7.0625,44.6875,-9.125,280.375,-5.375,-91.8125,0.50616455078125,0.509521484375,0.44537353515625,0.53460693359375,97.0,-131.0,231.0,-92.0,975.0,-31.0,5599,2878,1470,
140,9.510217905044556,0.06507039070129395,15.367972886324083,14.721008645421158,2.4687424707057553e-38,-3.0,908.0,171.0,39.1875,-48.0625,-5.75,-6.3125,39.0,3.375,278.4375,-5.3125,-91.6875,0.497314453125,0.51739501953125,0.45465087890625,0.52752685546875,35.0,-82.0,175.0,-91.0,975.0,-29.0,5674,2874,1462,
141,9.578945398330688,0.06872749328613281,14.550217855854356,14.719783247179999,2.4691012031126224e-38,-117.0,1311.0,158.0,39.5625,-47.6875,-4.0,25.8125,67.4375,2.375,275.25,-4.875,-92.375,0.48956298828125,0.53045654296875,0.46630859375,0.51129150390625,-32.0,335.0,200.0,-84.0,976.0,-41.0,5762,2883,1403,
142,9.650634765625,0.07168936729431152,13.949069963117793,14.71405803334261,2.4691012031126224e-38,-317.0,1417.0,-191.0,38.6875,-47.75,-0.1875,15.125,-11.9375,-19.875,275.6875,-5.625,-93.5625,0.4871826171875,0.54107666015625,0.46343994140625,0.507568359375,-220.0,443.0,-129.0,-96.0,973.0,-61.0,5867,2846,1330,
143,9.71915602684021,0.06852126121520996,14.594010417572783,14.713211682690792,2.4691012031126224e-38,-390.0,924.0,-252.0,39.5,-45.875,-1.375,21.0,-4.3125,-13.5625,278.625,-6.75,-95.0,0.498291015625,0.54345703125,0.440185546875,0.51239013671875,-299.0,-137.0,-107.0,-115.0,970.0,-85.0,5979,2788,1264,
144,9.786248683929443,0.0670926570892334,14.904760720237947,14.714524906409808,2.4691012031126224e-38,-200.0,970.0,-350.0,39.75,-46.6875,-1.25,14.1875,-1.625,-0.375,279.3125,-7.125,-96.0625,0.501953125,0.54852294921875,0.43280029296875,0.509765625,-84.0,94.0,-261.0,-122.0,967.0,-103.0,6074,2731,1281,
145,9.853955030441284,0.06770634651184082,14.76966416767319,14.714903767275112,2.4691012031126224e-38,-383.0,844.0,-104.0,40.5,-45.75,-0.5,-19.75,-18.0625,16.375,280.8125,-6.6875,-95.8125,0.5118408203125,0.53692626953125,0.42730712890625,0.51678466796875,-268.0,-124.0,-5.0,-115.0,968.0,-98.0,6137,2695,1232,
146,9.920190572738647,0.06623554229736328,15.097634371445437,14.71745919894098,2.4691012031126224e-38,-96.0,848.0,-42.0,39.375,-46.1875,-1.25,2.75,-43.0,18.5625,282.3125,-5.375,-94.9375,0.52752685546875,0.51470947265625,0.42388916015625,0.52642822265625,33.0,-84.0,52.0,-92.0,972.0,-84.0,6197,2664,1181,
147,9.989532470703125,0.06934189796447754,14.421295484474335,14.715403391611703,2.4696034284822364e-38,1.0,823.0,-42.0,38.1875,-48.0,-2.5625,17.375,-6.125,15.625,283.1875,-4.4375,-95.5625,0.54290771484375,0.503662109375,0.4173583984375,0.52667236328125,83.0,-106.0,33.0,-75.0,973.0,-95.0,6251,2630,1169,
148,10.05515193939209,0.06561946868896484,15.239379714273257,14.71882283749436,2.4696034284822364e-38,28.0,892.0,56.0,37.5,-49.5,-2.5625,25.375,2.375,-7.25,284.25,-4.3125,-96.8125,0.55364990234375,0.5030517578125,0.4073486328125,0.52392578125,102.0,-78.0,173.0,-74.0,970.0,-116.0,6335,2619,1089,
149,10.122661352157593,0.06750941276550293,14.812749200967668,14.719449245256182,2.4696034284822364e-38,-78.0,984.0,-96.0,37.0625,-47.1875,-1.75,39.1875,-19.75,-16.6875,285.8125,-5.1875,-98.9375,0.5635986328125,0.5125732421875,0.38818359375,0.5185546875,14.0,20.0,61.0,-92.0,963.0,-157.0,6507,2640,967,
150,10.190399408340454,0.06773805618286133,14.762750163666697,14.71973707696194,2.4696034284822364e-38,-113.0,1039.0,-76.0,37.875,-47.1875,-1.75,9.125,-41.1875,-3.4375,291.5625,-6.5,-100.6875,0.58245849609375,0.5030517578125,0.35882568359375,0.52813720703125,-2.0,81.0,104.0,-111.0,957.0,-181.0,6558,2560,1158,
151,10.260952472686768,0.07055306434631348,14.173728799240338,14.715982790285898,2.4696034284822364e-38,-162.0,1391.0,-74.0,37.875,-47.5,-2.5625,-4.375,-37.4375,21.9375,294.25,-6.0,-99.75,0.59393310546875,0.481201171875,0.3499755859375,0.54150390625,-58.0,430.0,90.0,-103.0,960.0,-166.0,6595,2536,1208,
152,10.331766605377197,0.07081413269042969,14.12147493737711,14.711908021701841,2.470894865146958e-38,-197.0,1217.0,-421.0,37.0625,-47.875,-3.0625,4.4375,-10.4375,24.625,294.125,-4.625,-99.6875,0.60614013671875,0.46527099609375,0.3511962890625,0.54107666015625,-120.0,254.0,-256.0,-76.0,963.0,-164.0,6738,2541,1142,
153,10.397917747497559,0.06615114212036133,15.11689697179393,14.71448454541027,2.470894865146958e-38,-231.0,670.0,-187.0,35.5625,-48.5625,-4.75,-24.125,-21.125,14.0625,294.5,-3.25,-98.1875,0.611083984375,0.44512939453125,0.35400390625,0.55059814453125,-175.0,-298.0,-47.0,-56.0,968.0,-140.0,6731,2561,1051,
154,10.467426776885986,0.06950902938842773,14.386620109624,14.712307359059867,2.470894865146958e-38,92.0,960.0,-195.0,34.1875,-49.6875,-7.375,-11.1875,-32.625,10.6875,296.625,-3.25,-97.5,0.6163330078125,0.43084716796875,0.3460693359375,0.56103515625,148.0,-10.0,-67.0,-55.0,970.0,-128.0,6744,2585,950,
155,10.538411378860474,0.0709846019744873,14.087562262579308,14.708099202781383,2.470894865146958e-38,-104.0,972.0,-94.0,33.0625,-50.0625,-7.875,-17.4375,20.1875,-20.0625,297.1875,-3.3125,-97.125,0.615966796875,0.427490234375,0.3447265625,0.5648193359375,-47.0,0.0,26.0,-57.0,971.0,-121.0,6868,2540,1062,
156,10.604642391204834,0.06623101234436035,15.09866699304878,14.710538483540155,2.470894865146958e-38,-156.0,890.0,-49.0,35.0,-49.375,-10.5,-6.5,28.8125,-31.4375,297.1875,-4.9375,-96.0,0.59832763671875,0.44110107421875,0.34832763671875,0.571044921875,-71.0,-80.0,53.0,-85.0,971.0,-103.0,6990,2555,985,
157,10.671793937683105,0.06715154647827148,14.891689803801828,14.711678366054116,2.470894865146958e-38,-85.0,794.0,-39.0,35.0,-49.375,-8.6875,2.4375,36.25,-33.0625,297.9375,-7.0,-96.125,0.58514404296875,0.45928955078125,0.344482421875,0.57269287109375,35.0,-173.0,64.0,-120.0,967.0,-104.0,7079,2581,912,
158,10.7394859790802,0.06769204139709473,14.772785387484547,14.712063529648757,2.4692446960753693e-38,-160.0,764.0,105.0,36.5,-48.5625,-8.25,-12.6875,38.75,-15.6875,296.875,-8.125,-96.125,0.57147216796875,0.47564697265625,0.349853515625,0.5699462890625,-20.0,-211.0,225.0,-139.0,965.0,-103.0,7163,2571,943,
159,10.806471586227417,0.0669856071472168,14.928580072466348,14.71340564136046,2.4692446960753693e-38,18.0,839.0,82.0,38.25,-46.6875,-8.25,-11.4375,28.0625,8.9375,295.375,-8.0625,-95.25,0.5623779296875,0.47882080078125,0.36016845703125,0.56982421875,156.0,-127.0,171.0,-137.0,966.0,-89.0,7241,2562,977,
160,10.874754428863525,0.0682828426361084,14.644967335779803,14.712975915606117,2.4692446960753693e-38,-43.0,1532.0,222.0,38.25,-46.375,-7.375,5.5,36.125,-4.125,293.125,-7.375,-96.0,0.5618896484375,0.48626708984375,0.36871337890625,0.5584716796875,82.0,565.0,324.0,-126.0,967.0,-102.0,7294,2579,956,
161,10.94227647781372,0.06752204895019531,14.809977119290416,14.713574485751614,2.4692446960753693e-38,-598.0,1314.0,-239.0,38.5625,-46.6875,-5.25,0.4375,1.1875,-22.1875,293.875,-8.4375,-97.0,0.55987548828125,0.496826171875,0.36163330078125,0.55584716796875,-454.0,351.0,-121.0,-144.0,962.0,-118.0,7364,2628,913,
163,11.032618761062622,0.020323991775512695,49.20293272332688,14.774370757310608,2.4692446960753693e-38,-348.0,637.0,-408.0,39.375,-46.375,-5.6875,24.3125,25.5625,-5.125,294.875,-9.5625,-98.625,0.56072998046875,0.5096435546875,0.3509521484375,0.5501708984375,-184.0,-317.0,-262.0,-163.0,955.0,-145.0,7442,2640,1036,
164,11.098505020141602,0.06588625907897949,15.177671550622948,14.776764951889673,2.4679532594106475e-38,-352.0,988.0,-173.0,40.0625,-47.0625,-3.875,-18.625,5.0625,14.8125,293.125,-8.875,-98.8125,0.5601806640625,0.5118408203125,0.35888671875,0.54351806640625,-200.0,31.0,-25.0,-151.0,957.0,-148.0,7813,2808,185,
165,11.16694188117981,0.06843686103820801,14.61200857008483,14.775755238601405,2.4679532594106475e-38,-151.0,696.0,-81.0,39.6875,-46.5625,-3.875,3.375,-10.8125,19.5,293.0,-7.625,-98.0,0.56756591796875,0.49688720703125,0.3621826171875,0.54754638671875,22.0,-210.0,34.0,-128.0,962.0,-137.0,8184,3185,-2230,
166,11.239335536956787,0.07239365577697754,13.813365125263058,14.769556390069916,2.4679532594106475e-38,-62.0,885.0,-127.0,38.0625,-48.0625,-3.875,24.625,-22.125,1.25,295.1875,-7.4375,-99.8125,0.58599853515625,0.491455078125,0.34527587890625,0.5439453125,76.0,-83.0,61.0,-127.0,957.0,-166.0,8633,2822,-2137,
167,11.307546615600586,0.06821107864379883,14.660375116218917,14.768897770414366,2.4679532594106475e-38,-8.0,919.0,-64.0,38.0625,-47.75,-4.375,24.25,-14.125,2.125,296.875,-7.4375,-101.0,0.597900390625,0.48748779296875,0.3330078125,0.542236328125,119.0,-34.0,122.0,-127.0,954.0,-186.0,8360,2797,-1569,
170,11.447068691253662,0.032236337661743164,31.020893579569407,14.850963559770681,2.4679532594106475e-38,-109.0,1107.0,-132.0,38.0625,-48.0625,-3.0625,7.0625,-32.8125,8.3125,301.5,-7.625,-101.8125,0.61944580078125,0.46697998046875,0.30804443359375,0.55078125,20.0,155.0,67.0,-130.0,951.0,-199.0,8302,2738,-1376,
171,11.519598484039307,0.07252979278564453,13.787437707914219,14.844267379364377,2.469029456631249e-38,-161.0,1391.0,-107.0,36.25,-48.0625,-4.75,-20.0625,-14.9375,33.0625,301.75,-6.4375,-100.75,0.62542724609375,0.4493408203125,0.31024169921875,0.557373046875,-50.0,434.0,74.0,-110.0,957.0,-182.0,8231,2791,-1112,
172,11.586386680603027,0.0667881965637207,14.972705529575554,14.845007744126839,2.469029456631249e-38,-108.0,1050.0,-498.0,35.5,-47.75,-7.375,3.1875,-26.6875,42.0625,300.125,-3.5625,-99.8125,0.63763427734375,0.42303466796875,0.32110595703125,0.55804443359375,-50.0,-28.0,-395.0,-61.0,964.0,-167.0,8227,2830,-900,
173,11.652415752410889,0.06602907180786133,15.14484412123663,14.846706783887816,2.469029456631249e-38,-182.0,966.0,-34.0,33.5625,-48.875,-7.0,-8.375,-22.0,9.875,300.1875,-2.4375,-99.9375,0.64642333984375,0.41046142578125,0.320556640625,0.55755615234375,-139.0,1.0,135.0,-42.0,964.0,-169.0,8092,2938,-530,
174,11.722435235977173,0.07001948356628418,14.281739154121961,14.843332165826677,2.469029456631249e-38,62.0,876.0,-226.0,30.5625,-51.0,-8.6875,-4.875,0.0,3.6875,301.875,-2.1875,-98.875,0.64971923828125,0.3946533203125,0.31512451171875,0.568359375,78.0,-106.0,-45.0,-38.0,967.0,-152.0,8121,2981,-307,
175,11.79427695274353,0.07184171676635742,13.919489191108633,14.837704820836203,2.469029456631249e-38,-179.0,822.0,-54.0,31.5,-50.75,-9.5,-23.75,36.5,-23.375,300.6875,-2.875,-98.25,0.63751220703125,0.40692138671875,0.323486328125,0.568603515625,-130.0,-146.0,86.0,-49.0,969.0,-141.0,8193,2987,-126,
176,11.865007638931274,0.07073068618774414,14.138135141876724,14.833534486948967,2.4683119918175147e-38,-100.0,873.0,2.0,31.75,-48.875,-9.5,-0.625,17.125,-10.4375,299.5625,-3.5625,-97.4375,0.6241455078125,0.4188232421875,0.3319091796875,0.57000732421875,-38.0,-97.0,129.0,-61.0,970.0,-127.0,8411,2952,-200,
177,11.935528755187988,0.07052111625671387,14.180149905168246,14.82967396170562,2.4683119918175147e-38,-54.0,891.0,-2.0,32.5,-49.5625,-10.375,17.5,19.125,-15.5625,299.75,-4.3125,-98.5625,0.6246337890625,0.42950439453125,0.3270263671875,0.56427001953125,6.0,-143.0,216.0,-77.0,966.0,-148.0,8483,2913,-53,
178,12.004781246185303,0.06925249099731445,14.439913793697025,14.82742553568497,2.4683119918175147e-38,0.0,964.0,140.0,33.5625,-48.875,-7.875,-11.75,-7.3125,-2.125,299.75,-4.8125,-98.75,0.621826171875,0.43536376953125,0.32659912109375,0.5631103515625,82.0,-1.0,290.0,-82.0,965.0,-149.0,8532,2935,120,
179,12.07430648803711,0.06952524185180664,14.383265320119337,14.824868010212287,2.4683119918175147e-38,-181.0,1547.0,232.0,34.0,-47.75,-8.25,18.0,23.5,-4.6875,298.875,-4.5,-98.5,0.61956787109375,0.43621826171875,0.3316650390625,0.56195068359375,-103.0,580.0,377.0,-77.0,966.0,-145.0,8564,2945,343,
180,12.142630815505981,0.06832432746887207,14.636075275758706,14.82380570857366,2.4683119918175147e-38,-367.0,1338.0,-308.0,32.875,-47.0,-7.0,14.5625,-29.1875,-24.1875,301.375,-5.875,-100.0625,0.625244140625,0.44293212890625,0.3143310546875,0.56036376953125,-266.0,378.0,-137.0,-101.0,960.0,-170.0,8624,2942,522,
181,12.207909345626831,0.06527853012084961,15.318972381098474,14.826453479918623,2.4683119918175147e-38,-172.0,683.0,-254.0,34.75,-47.75,-7.0,8.375,2.875,-14.125,303.8125,-6.9375,-101.0625,0.63055419921875,0.4447021484375,0.2994384765625,0.56121826171875,-53.0,-271.0,-67.0,-119.0,955.0,-187.0,8672,2923,759,
182,12.276402235031128,0.06849288940429688,14.600055694792538,14.82519035427634,2.468885963668502e-38,-225.0,931.0,-419.0,35.5,-48.0625,-6.0625,-9.1875,27.875,0.3125,302.6875,-7.375,-101.375,0.62420654296875,0.45654296875,0.30389404296875,0.556396484375,-99.0,-22.0,-226.0,-126.0,953.0,-192.0,8848,2873,745,
183,12.353576898574829,0.07717466354370117,12.95762046871428,14.813523362704109,2.468885963668502e-38,-242.0,699.0,-141.0,36.5625,-48.0625,-6.0625,-13.6875,1.125,19.6875,300.6875,-6.5625,-100.0625,0.61749267578125,0.4537353515625,0.31781005859375,0.55841064453125,-130.0,-259.0,29.0,-112.0,959.0,-171.0,9371,2743,157,
184,12.420244693756104,0.06666779518127441,14.9997460885114,14.8145229451478,2.468885963668502e-38,-53.0,920.0,-181.0,35.875,-46.875,-7.0,19.375,-16.5625,4.9375,301.3125,-5.8125,-100.8125,0.62908935546875,0.44482421875,0.312255859375,0.5557861328125,45.0,-37.0,2.0,-99.0,958.0,-183.0,9767,2708,-998,
185,12.487651109695435,0.06740641593933105,14.83538304276624,14.814635544739529,2.468885963668502e-38,36.0,822.0,-78.0,34.375,-46.875,-6.0625,12.4375,-8.5625,6.0,302.0625,-5.5625,-101.5625,0.63690185546875,0.44073486328125,0.30621337890625,0.553466796875,132.0,-133.0,117.0,-95.0,956.0,-195.0,10137,2482,-1335,
186,12.552798748016357,0.06514763832092285,15.349750593780763,14.817412732709704,2.468885963668502e-38,-62.0,935.0,-157.0,34.75,-46.5,-5.6875,18.125,-13.3125,-8.25,303.0,-5.75,-102.6875,0.6439208984375,0.44140625,0.29803466796875,0.54925537109375,36.0,-15.0,57.0,-99.0,951.0,-214.0,9834,2524,-830,
187,12.619484186172485,0.06668543815612793,14.995777603781208,14.818355270408043,2.467881512929274e-38,-139.0,896.0,-15.0,33.5625,-47.75,-7.375,-9.9375,-36.875,-3.75,306.4375,-6.625,-102.3125,0.648681640625,0.43255615234375,0.2843017578125,0.56024169921875,-27.0,-55.0,194.0,-112.0,951.0,-210.0,9587,2637,-632,
188,12.688507556915283,0.06902337074279785,14.487846496606275,14.81655735764915,2.467881512929274e-38,169.0,1252.0,16.0,34.75,-47.6875,-7.375,-11.25,-21.4375,10.625,308.8125,-7.0625,-102.0,0.65283203125,0.42108154296875,0.2718505859375,0.5679931640625,290.0,300.0,219.0,-121.0,951.0,-202.0,9401,2734,-383,
189,12.758199691772461,0.06969213485717773,14.348821456672711,14.814002333094283,2.467881512929274e-38,-212.0,1178.0,-316.0,35.0625,-46.875,-8.6875,-30.0,-7.1875,36.0,308.375,-5.4375,-100.375,0.6558837890625,0.39971923828125,0.2786865234375,0.57647705078125,-190.0,200.0,-153.0,-93.0,960.0,-176.0,9888,2514,-659,
190,12.826171398162842,0.06797170639038086,14.712003760163315,14.813461796340464,2.467881512929274e-38,-307.0,773.0,-420.0,31.375,-48.75,-10.375,-38.3125,-7.0625,36.25,306.4375,-3.0,-98.5625,0.65740966796875,0.3770751953125,0.293701171875,0.58251953125,-255.0,-194.0,-274.0,-52.0,968.0,-145.0,9697,2656,-398,
191,12.897897720336914,0.07172632217407227,13.941883114724673,14.808614872084036,2.467881512929274e-38,-7.0,1135.0,-77.0,29.0625,-49.1875,-11.6875,-19.5,-31.3125,20.875,306.25,-1.3125,-96.75,0.6590576171875,0.3533935546875,0.30010986328125,0.59222412109375,71.0,88.0,4.0,-22.0,973.0,-116.0,9601,2758,-176,
192,12.96727180480957,0.06937408447265625,14.414604640932586,14.806506942253424,2.467881512929274e-38,88.0,999.0,-42.0,29.0625,-49.1875,-13.875,-23.0,38.3125,-23.875,306.25,-1.5625,-96.0625,0.65399169921875,0.35430908203125,0.302001953125,0.5963134765625,115.0,24.0,61.0,-27.0,974.0,-104.0,9885,2674,-260,
193,13.038463354110718,0.07119154930114746,14.046611006734786,14.80235782072829,2.466733569227299e-38,-126.0,900.0,17.0,29.0625,-48.75,-15.5625,-26.125,61.0625,-35.125,303.9375,-3.625,-94.0625,0.622802734375,0.38470458984375,0.320068359375,0.6014404296875,-49.0,-108.0,94.0,-62.0,976.0,-70.0,10332,2509,-581,
194,13.109206199645996,0.07074284553527832,14.13570506576974,14.798760279263806,2.466733569227299e-38,-128.0,664.0,-5.0,31.0,-46.5,-13.875,0.5,66.3125,-23.875,301.5625,-5.1875,-93.8125,0.6025390625,0.412841796875,0.333251953125,0.59619140625,-39.0,-310.0,60.0,-88.0,974.0,-65.0,10675,2394,-792,
195,13.176291704177856,0.06708550453186035,14.906349843803865,14.799308058592132,2.466733569227299e-38,2.0,773.0,-14.0,34.375,-46.1875,-10.375,5.5,59.875,-5.8125,298.1875,-5.75,-94.5,0.588623046875,0.43927001953125,0.34857177734375,0.58233642578125,101.0,-199.0,62.0,-99.0,972.0,-77.0,10465,2539,-492,
196,13.243959665298462,0.06766796112060547,14.778042421252907,14.79919940511107,2.466733569227299e-38,-123.0,930.0,17.0,35.875,-45.75,-8.6875,9.375,7.5625,11.375,296.0625,-5.25,-95.0625,0.58734130859375,0.4464111328125,0.3572998046875,0.57269287109375,-74.0,21.0,133.0,-89.0,972.0,-86.0,10247,2687,-249,
197,13.314366340637207,0.07040667533874512,14.203198705076412,14.79604773970579,2.466733569227299e-38,125.0,1316.0,-23.0,35.5,-45.75,-8.25,12.125,29.4375,-1.5625,295.0625,-4.8125,-96.5,0.5931396484375,0.45257568359375,0.3572998046875,0.56182861328125,208.0,345.0,87.0,-83.0,970.0,-111.0,10227,2772,-142,
198,13.385171175003052,0.07080483436584473,14.123329416082727,14.792489196534676,2.469172949593996e-38,-445.0,1280.0,-253.0,35.5625,-43.875,-7.0,23.5,-40.4375,-20.375,297.375,-6.0625,-98.3125,0.60052490234375,0.45977783203125,0.33984375,0.55902099609375,-341.0,315.0,-112.0,-108.0,963.0,-146.0,10231,2813,36,
199,13.450910091400146,0.06573891639709473,15.211689738837771,14.794537964180643,2.469172949593996e-38,-256.0,485.0,-355.0,35.875,-44.6875,-7.0,10.8125,21.25,-14.875,300.0,-7.3125,-99.8125,0.6063232421875,0.466552734375,0.3226318359375,0.5572509765625,-130.0,-472.0,-188.0,-126.0,957.0,-167.0,10214,2871,191,
200,13.518397331237793,0.06748723983764648,14.817615928665804,14.794653175184287,2.469172949593996e-38,-328.0,1079.0,-277.0,35.875,-43.875,-4.75,-33.625,-2.125,11.9375,298.5625,-6.8125,-99.0,0.601806640625,0.46435546875,0.331787109375,0.5587158203125,-185.0,161.0,-156.0,-117.0,961.0,-152.0,10227,2921,341,
201,13.585152387619019,0.06675505638122559,14.980138647313664,14.795564618265423,2.469172949593996e-38,-246.0,744.0,-43.0,37.0,-43.5,-5.6875,-6.375,-15.3125,24.0625,297.4375,-5.5625,-96.9375,0.5986328125,0.4493408203125,0.3441162109375,0.56683349609375,-150.0,-224.0,74.0,-95.0,968.0,-118.0,10243,2952,488,
202,13.651546955108643,0.06639456748962402,15.061473217010978,14.796857869972614,2.469172949593996e-38,23.0,839.0,-110.0,35.5,-45.0,-6.5625,21.125,-37.0,5.625,299.375,-5.0625,-97.875,0.61456298828125,0.43695068359375,0.3311767578125,0.56719970703125,110.0,-127.0,23.0,-86.0,967.0,-134.0,10239,2978,710,
203,13.722575187683105,0.07102823257446289,14.078908678343415,14.79314175536131,2.469172949593996e-38,10.0,857.0,-28.0,34.75,-46.1875,-9.0625,28.9375,-14.4375,2.9375,301.25,-4.8125,-99.375,0.6302490234375,0.429443359375,0.31707763671875,0.56378173828125,93.0,-106.0,131.0,-82.0,963.0,-160.0,10309,2991,758,
204,13.792755365371704,0.07018017768859863,14.249037733092809,14.790373250015397,2.468885963668502e-38,-40.0,976.0,1.0,34.5,-46.875,-7.0,11.625,-33.5,-9.8125,303.8125,-5.625,-101.0625,0.6412353515625,0.42962646484375,0.29937744140625,0.5609130859375,55.0,18.0,189.0,-96.0,957.0,-187.0,10388,3004,753,
205,13.859803915023804,0.06704854965209961,14.914565716764692,14.790974046738375,2.468885963668502e-38,-97.0,1095.0,-247.0,34.0625,-45.75,-6.0625,13.1875,-40.125,-9.875,308.1875,-6.5625,-101.375,0.6514892578125,0.416748046875,0.2769775390625,0.57025146484375,14.0,140.0,-55.0,-112.0,955.0,-192.0,10466,3020,707,
206,13.928089380264282,0.06828546524047852,14.64440487413149,14.790255459725604,2.468885963668502e-38,-297.0,1408.0,-65.0,34.75,-46.5,-8.25,-12.8125,-37.375,19.5,309.5625,-6.5625,-100.625,0.65313720703125,0.406494140625,0.2720947265625,0.57806396484375,-65.0,424.0,40.0,-112.0,957.0,-180.0,10493,3030,868,
207,13.99559211730957,0.06750273704528809,14.814214115926776,14.790371015741808,2.468885963668502e-38,-159.0,1180.0,-451.0,34.75,-46.5,-9.0625,-9.75,-26.6875,37.875,309.375,-4.6875,-99.5,0.66058349609375,0.38238525390625,0.276123046875,0.5841064453125,-79.0,216.0,-289.0,-80.0,963.0,-161.0,10666,3033,488,
208,14.064398050308228,0.06880593299865723,14.533630406835925,14.789114987785887,2.468885963668502e-38,-213.0,767.0,33.0,32.0625,-45.75,-10.6875,-31.25,-24.3125,18.5625,309.5,-3.125,-97.5625,0.66156005859375,0.35797119140625,0.28094482421875,0.5960693359375,-159.0,-202.0,162.0,-53.0,970.0,-129.0,10692,2986,822,
209,14.131762981414795,0.06736493110656738,14.844519003783414,14.789379094092057,2.4698186679263567e-38,174.0,1012.0,-97.0,29.5,-48.75,-13.875,5.8125,-29.6875,18.875,310.75,-1.8125,-97.0,0.67022705078125,0.3343505859375,0.27606201171875,0.60235595703125,262.0,49.0,-26.0,-32.0,972.0,-119.0,10750,3015,802,
210,14.198785305023193,0.06702232360839844,14.920401832721478,14.78999755885505,2.4698186679263567e-38,56.0,1055.0,-175.0,28.0,-49.1875,-15.5625,0.0625,72.0625,-5.3125,308.4375,-1.75,-97.5625,0.6673583984375,0.34783935546875,0.2861328125,0.5931396484375,213.0,313.0,-95.0,-30.0,971.0,-129.0,10807,3031,726,
211,14.275377750396729,0.07659244537353516,13.056117938565363,14.780694682081956,2.4698186679263567e-38,-329.0,862.0,-51.0,28.0,-49.5,-13.75,-9.3125,44.1875,-25.0625,306.0,-2.75,-97.0625,0.65032958984375,0.37249755859375,0.3004150390625,0.5899658203125,-281.0,-109.0,69.0,-51.0,971.0,-120.0,10916,3035,633,
212,14.347776174545288,0.07239842414855957,13.81245533670771,14.775808977011641,2.4698186679263567e-38,-25.0,744.0,25.0,32.0625,-49.1875,-12.5,1.25,33.1875,-13.5625,304.6875,-3.9375,-96.8125,0.6368408203125,0.39208984375,0.30792236328125,0.588134765625,33.0,-234.0,147.0,-67.0,971.0,-116.0,10994,3053,745,
213,14.417146444320679,0.06937026977539062,14.415397305471542,14.774074802015118,2.4698186679263567e-38,45.0,942.0,108.0,32.5,-46.875,-11.5625,-17.0,36.5625,3.875,302.125,-3.875,-96.5625,0.62713623046875,0.40478515625,0.32171630859375,0.58251953125,117.0,-27.0,251.0,-66.0,971.0,-112.0,11083,3088,644,
214,14.483334302902222,0.06618785858154297,15.108511159459965,14.775603153558219,2.4698186679263567e-38,-126.0,1234.0,40.0,32.875,-46.1875,-11.6875,5.5,45.0625,12.5625,298.5,-2.875,-96.375,0.62078857421875,0.4129638671875,0.340576171875,0.57281494140625,-77.0,261.0,149.0,-49.0,973.0,-109.0,11191,3155,737,
215,14.550323963165283,0.06698966026306152,14.927676839576474,14.776303300481896,2.468383738298888e-38,13.0,1362.0,-207.0,33.25,-48.375,-9.0,15.25,7.0625,-15.4375,296.5,-2.9375,-97.25,0.61688232421875,0.42724609375,0.34759521484375,0.56219482421875,63.0,391.0,-83.0,-50.0,971.0,-123.0,11249,3148,589,
216,14.61935567855835,0.0690317153930664,14.486095185466603,14.774932955273737,2.468383738298888e-38,-342.0,748.0,-297.0,33.25,-47.6875,-8.5625,25.75,-15.9375,-14.6875,298.25,-3.8125,-98.9375,0.62445068359375,0.433349609375,0.333251953125,0.55780029296875,-276.0,-217.0,-145.0,-65.0,966.0,-152.0,11344,3176,792,
217,14.68411374092102,0.0647580623626709,15.44209266793071,14.777875180527529,2.468383738298888e-38,-126.0,720.0,-348.0,34.375,-46.5,-7.75,9.125,16.375,-24.375,299.875,-5.375,-99.8125,0.622314453125,0.44488525390625,0.32244873046875,0.5574951171875,-33.0,-241.0,-181.0,-92.0,961.0,-167.0,11451,3286,605,
218,14.754777908325195,0.0706641674041748,14.151443889239406,14.774875050948499,2.468383738298888e-38,-466.0,1005.0,-155.0,35.375,-45.375,-7.75,-28.625,12.0,15.625,297.625,-4.625,-98.875,0.61541748046875,0.4453125,0.33648681640625,0.5565185546875,-365.0,-15.0,4.0,-79.0,965.0,-151.0,11434,3157,1126,
219,14.824010372161865,0.06923246383666992,14.444090887176202,14.773330192163247,2.468383738298888e-38,-78.0,730.0,-146.0,35.0,-46.5,-6.5,18.375,-26.4375,17.4375,297.5625,-3.6875,-98.8125,0.62255859375,0.43499755859375,0.3369140625,0.5565185546875,-15.0,-236.0,4.0,-63.0,966.0,-150.0,11567,3359,383,
220,14.889549970626831,0.06553959846496582,15.257951275587228,14.775463357455543,2.46967517496361e-38,55.0,872.0,-87.0,33.1875,-48.0,-9.0,12.625,-27.875,9.8125,299.5625,-3.25,-99.75,0.6375732421875,0.42218017578125,0.32415771484375,0.5570068359375,115.0,-81.0,78.0,-55.0,964.0,-166.0,11548,3209,1134,
221,14.956446886062622,0.06689691543579102,14.948372335041663,14.77623674149119,2.46967517496361e-38,14.0,877.0,-59.0,33.1875,-49.1875,-7.75,18.625,-18.375,-5.3125,301.125,-3.25,-100.625,0.64813232421875,0.41680908203125,0.31158447265625,0.55596923828125,69.0,-59.0,108.0,-58.0,961.0,-184.0,11622,3260,477,
222,15.021393299102783,0.06494641304016113,15.397309153649896,14.778922006739542,2.46967517496361e-38,-111.0,916.0,52.0,33.1875,-48.375,-7.75,-6.0625,-41.3125,-1.75,304.25,-4.25,-101.125,0.65325927734375,0.41180419921875,0.29681396484375,0.561767578125,-38.0,-42.0,240.0,-73.0,959.0,-188.0,11633,3147,891,
223,15.090096712112427,0.06870341300964355,14.555317650079989,14.777903962736284,2.46967517496361e-38,28.0,1192.0,-68.0,33.1875,-49.1875,-9.0,-5.5625,-25.6875,11.3125,307.3125,-4.3125,-100.625,0.66143798828125,0.39324951171875,0.28314208984375,0.57244873046875,102.0,231.0,112.0,-74.0,961.0,-180.0,11772,3207,757,
224,15.157026529312134,0.06692981719970703,14.941023923854035,14.778624261612723,2.46967517496361e-38,-29.0,1377.0,-218.0,32.375,-48.75,-10.6875,-21.75,-40.8125,35.8125,308.3125,-3.25,-98.5,0.66131591796875,0.3695068359375,0.28485107421875,0.58740234375,-150.0,375.0,155.0,-56.0,968.0,-144.0,11837,3252,748,
225,15.22596526145935,0.0689387321472168,14.505633754106865,14.777388240174837,2.46967517496361e-38,119.0,1137.0,-489.0,31.6875,-47.25,-12.875,1.25,-16.5625,36.125,307.625,-0.875,-98.0625,0.67236328125,0.34393310546875,0.28924560546875,0.58819580078125,134.0,166.0,-351.0,-15.0,970.0,-137.0,11923,3294,760,
226,15.292751550674438,0.06678628921508789,14.973133134848387,14.778243094522319,2.4689577101498756e-38,-280.0,880.0,59.0,26.375,-50.6875,-14.6875,-5.3125,-10.625,-4.25,307.25,0.125,-96.8125,0.67120361328125,0.3304443359375,0.29449462890625,0.5946044921875,-282.0,-93.0,176.0,2.0,973.0,-117.0,11974,3326,758,
227,15.360574960708618,0.06782341003417969,14.744171658370595,14.77809265477703,2.4689577101498756e-38,247.0,989.0,-237.0,26.75,-50.6875,-15.5,15.8125,3.875,2.8125,308.25,0.125,-96.625,0.67333984375,0.32379150390625,0.28973388671875,0.59820556640625,245.0,15.0,-123.0,2.0,973.0,-114.0,11960,3267,742,
228,15.426292419433594,0.06571745872497559,15.216656568918042,14.779960978360053,2.4689577101498756e-38,-194.0,967.0,-93.0,27.1875,-49.1875,-16.75,-7.25,56.0,-21.4375,305.875,-0.0625,-97.125,0.66729736328125,0.3424072265625,0.30072021484375,0.589111328125,-192.0,-5.0,28.0,-2.0,972.0,-122.0,11987,3286,805,
229,15.495373487472534,0.06908106803894043,14.475746081926646,14.778604735480462,2.4689577101498756e-38,-92.0,760.0,32.0,28.6875,-50.25,-14.1875,-12.125,50.0,-21.3125,303.25,-1.375,-96.375,0.64715576171875,0.369873046875,0.3165283203125,0.586669921875,-68.0,-213.0,141.0,-23.0,974.0,-109.0,12058,3369,537,
230,15.563096284866333,0.06772279739379883,14.76607639500088,14.778550218419818,2.4689577101498756e-38,-30.0,813.0,92.0,30.1875,-49.1875,-13.375,4.6875,42.375,-17.4375,301.375,-2.25,-96.125,0.6339111328125,0.38946533203125,0.32684326171875,0.58282470703125,7.0,-161.0,197.0,-38.0,974.0,-104.0,12023,3233,2038,
231,15.629294872283936,0.06619858741760254,15.106062515981948,14.779937411612964,2.4689577101498756e-38,65.0,1002.0,186.0,32.75,-48.0,-11.5625,-8.3125,10.25,-4.0625,299.9375,-2.75,-96.1875,0.6256103515625,0.40350341796875,0.33416748046875,0.57806396484375,112.0,29.0,292.0,-47.0,973.0,-106.0,12208,3478,104,
232,15.696059465408325,0.06676459312438965,14.97799886441144,14.780779883721257,2.4691012031126224e-38,-6.0,944.0,46.0,33.5,-48.0,-10.25,14.5625,38.6875,-2.5625,298.3125,-2.5625,-96.5,0.62237548828125,0.41143798828125,0.34124755859375,0.57177734375,24.0,4.0,160.0,-44.0,973.0,-111.0,12306,3315,242,
233,15.764321565628052,0.06826210021972656,14.649417418759954,14.780211062683767,2.4691012031126224e-38,-17.0,1251.0,-277.0,33.1875,-47.25,-9.0625,18.625,6.75,-21.125,296.9375,-3.3125,-97.625,0.61749267578125,0.430419921875,0.3441162109375,0.561279296875,39.0,281.0,-147.0,-57.0,970.0,-130.0,12401,3136,428,
234,15.831201553344727,0.0668799877166748,14.952155856193073,14.780937455158721,2.4691012031126224e-38,-495.0,1105.0,-289.0,34.6875,-47.6875,-8.25,19.875,-30.375,-21.4375,300.6875,-5.0625,-99.3125,0.6258544921875,0.434814453125,0.3201904296875,0.56280517578125,-322.0,10.0,-63.0,-86.0,963.0,-158.0,12569,3169,459,
235,15.896324634552002,0.06512308120727539,15.355538796101719,14.7832914464522,2.4691012031126224e-38,-38.0,647.0,-476.0,36.1875,-46.1875,-7.0,28.5625,18.5625,-20.1875,301.9375,-6.0625,-100.4375,0.6275634765625,0.4429931640625,0.3104248046875,0.5599365234375,66.0,-311.0,-299.0,-104.0,958.0,-176.0,12659,3154,546,
236,15.959326028823853,0.06300139427185059,15.872664590326474,14.787591880369172,2.4691012031126224e-38,-446.0,922.0,-223.0,35.75,-45.375,-4.75,-15.125,-6.5625,18.1875,299.5,-5.3125,-100.375,0.6241455078125,0.44757080078125,0.32244873046875,0.55328369140625,-367.0,-76.0,-8.0,-90.0,960.0,-176.0,12729,3168,623,
237,16.0276038646698,0.06827783584594727,14.646041246185112,14.786988872518073,2.4694599355194896e-38,22.0,794.0,-108.0,36.25,-45.375,-5.1875,11.375,-35.6875,26.3125,300.25,-4.375,-100.0625,0.6331787109375,0.4320068359375,0.31964111328125,0.55706787109375,97.0,-168.0,63.0,-75.0,962.0,-171.0,12798,3201,685,
238,16.09483766555786,0.06723380088806152,14.873471182521923,14.787350139561083,2.4694599355194896e-38,54.0,896.0,-149.0,33.5625,-48.0,-6.0,21.4375,-30.3125,11.4375,301.8125,-3.625,-101.125,0.64923095703125,0.41851806640625,0.30877685546875,0.55499267578125,116.0,-64.0,40.0,-62.0,960.0,-189.0,12866,3232,733,
239,16.160950660705566,0.06611299514770508,15.125619369775476,14.788733968547712,2.4694599355194896e-38,-20.0,815.0,-84.0,32.875,-48.375,-7.75,25.1875,-21.1875,0.5625,303.375,-3.4375,-102.25,0.661376953125,0.4110107421875,0.29736328125,0.552490234375,59.0,-129.0,132.0,-59.0,956.0,-208.0,12922,3265,778,
240,16.227969646453857,0.06701898574829102,14.9211449387758,14.789280805220443,2.4694599355194896e-38,-62.0,1027.0,-140.0,32.875,-48.75,-6.875,9.25,-39.5,-1.4375,305.8125,-4.0,-103.5,0.67138671875,0.40716552734375,0.281982421875,0.55133056640625,6.0,76.0,87.0,-68.0,951.0,-228.0,12980,3302,800,
241,16.294779539108276,0.06680989265441895,14.967843238015709,14.79001292540277,2.4694599355194896e-38,35.0,1018.0,-267.0,32.5,-49.1875,-7.0,-5.9375,-36.6875,11.5,308.375,-4.125,-102.875,0.6767578125,0.39190673828125,0.271240234375,0.56109619140625,106.0,64.0,-48.0,-71.0,953.0,-218.0,13053,3363,813,
242,16.362033128738403,0.06725358963012695,14.869094802220632,14.790337979144493,2.4694599355194896e-38,-144.0,1340.0,-153.0,32.0625,-49.5,-9.0625,-16.75,-36.0,21.75,309.0,-3.125,-101.375,0.6788330078125,0.37164306640625,0.2725830078125,0.57159423828125,-92.0,413.0,24.0,-53.0,959.0,-194.0,13125,3416,831,
243,16.43028736114502,0.06825423240661621,14.651106088815457,14.789759585986051,2.4699621608891036e-38,-46.0,894.0,-566.0,32.0625,-48.75,-9.5,-42.375,-5.9375,54.875,307.8125,-1.0,-99.9375,0.6815185546875,0.3489990234375,0.2828369140625,0.57769775390625,-28.0,-71.0,-396.0,-17.0,965.0,-169.0,13160,3434,828,
244,16.496654510498047,0.06636714935302734,15.067695535342214,14.79087774098225,2.4699621608891036e-38,-292.0,891.0,-81.0,27.5625,-49.875,-12.875,-6.625,-11.9375,3.75,306.125,0.5625,-98.75,0.6807861328125,0.3363037109375,0.2945556640625,0.58026123046875,-303.0,-77.0,69.0,10.0,969.0,-150.0,13186,3415,835,
245,16.563509464263916,0.06685495376586914,14.957754716308262,14.791551303097458,2.4699621608891036e-38,392.0,1152.0,-308.0,27.25,-52.5,-12.5625,2.375,12.75,-10.0,307.625,0.25,-98.25,0.67950439453125,0.33294677734375,0.28948974609375,0.586181640625,250.0,206.0,-158.0,3.0,970.0,-142.0,13252,3444,819,
246,16.62906002998352,0.06555056571960449,15.255398470206119,14.793379755466779,2.4699621608891036e-38,-279.0,789.0,-47.0,27.25,-52.1875,-12.875,-29.1875,54.375,-33.5625,304.9375,-0.625,-97.25,0.66131591796875,0.35467529296875,0.30548095703125,0.58612060546875,-268.0,-183.0,76.0,-11.0,972.0,-123.0,13318,3449,940,
247,16.697432279586792,0.06837224960327148,14.625816845320706,14.792693622837227,2.4699621608891036e-38,-118.0,726.0,-29.0,29.5,-50.6875,-12.5,-5.25,32.6875,-24.4375,303.75,-2.375,-96.5,0.64263916015625,0.3792724609375,0.31365966796875,0.58721923828125,-76.0,-246.0,81.0,-41.0,973.0,-112.0,13450,3611,263,
248,16.76608896255493,0.06865668296813965,14.565224487528084,14.791762142851475,2.4699621608891036e-38,-70.0,826.0,55.0,32.0625,-49.375,-11.5625,3.3125,36.375,-20.5625,302.9375,-3.5,-96.625,0.6328125,0.39691162109375,0.31732177734375,0.584228515625,-9.0,-145.0,169.0,-60.0,972.0,-113.0,13391,3223,2734,
249,16.832874059677124,0.06678509712219238,14.973400400546915,14.792482799860984,2.46989041440773e-38,138.0,974.0,3.0,32.5,-47.875,-11.1875,2.875,46.8125,1.3125,299.6875,-3.5625,-96.9375,0.622314453125,0.41619873046875,0.332763671875,0.57342529296875,200.0,2.0,122.0,-61.0,971.0,-118.0,13523,3345,1385,
250,16.902050018310547,0.06917595863342285,14.455889296730945,14.79110520494063,2.46989041440773e-38,-223.0,1034.0,127.0,33.1875,-48.25,-8.5625,2.1875,37.625,8.1875,295.9375,-3.0,-96.875,0.6126708984375,0.42962646484375,0.35162353515625,0.5625,-172.0,62.0,245.0,-51.0,972.0,-117.0,13611,3289,1261,
251,16.966980695724487,0.06493067741394043,15.401040614821968,14.7934393573778,2.46989041440773e-38,-61.0,1585.0,-321.0,34.375,-49.375,-7.75,13.0625,7.25,-13.3125,294.4375,-3.1875,-97.3125,0.607177734375,0.4415283203125,0.3575439453125,0.55548095703125,-5.0,613.0,-196.0,-55.0,971.0,-124.0,13738,3305,1200,
252,17.03238534927368,0.06540465354919434,15.28943195529423,14.795343977509653,2.46989041440773e-38,-314.0,1130.0,-425.0,33.875,-48.6875,-6.875,14.0,-11.125,-17.8125,295.875,-4.25,-97.9375,0.6075439453125,0.44708251953125,0.3482666015625,0.5565185546875,-241.0,162.0,-290.0,-72.0,968.0,-135.0,13815,3271,1059,
253,17.09643816947937,0.06405282020568848,15.612115076100753,14.79840405890255,2.46989041440773e-38,-273.0,503.0,-282.0,34.6875,-49.375,-5.5625,-7.125,20.125,-13.8125,296.5,-5.4375,-97.6875,0.59942626953125,0.4554443359375,0.34613037109375,0.55987548828125,-189.0,-649.0,-135.0,-93.0,967.0,-130.0,13897,3273,971,
254,17.16262173652649,0.06618356704711914,15.109490839139175,14.799603691050443,2.4685989777430084e-38,-339.0,1272.0,-163.0,35.375,-48.6875,-6.0,-11.875,-2.5,-2.5,295.375,-5.125,-97.9375,0.59881591796875,0.458984375,0.3505859375,0.5548095703125,-251.0,305.0,-28.0,-87.0,967.0,-135.0,13965,3258,905,
255,17.228599548339844,0.06597781181335449,15.156610571276799,14.800970867337382,2.4685989777430084e-38,-203.0,688.0,-189.0,35.75,-49.0625,-5.5625,22.5625,-46.1875,22.8125,296.8125,-4.5625,-97.25,0.6053466796875,0.44366455078125,0.34613037109375,0.56292724609375,-124.0,-280.0,-65.0,-78.0,969.0,-124.0,14045,3215,854,
257,17.31355905532837,0.018342256546020508,54.51891905944133,14.843857301593138,2.4685989777430084e-38,59.0,855.0,-141.0,34.6875,-49.375,-6.0,26.625,-56.75,13.625,301.125,-4.0,-99.625,0.63677978515625,0.42181396484375,0.3170166015625,0.56219482421875,128.0,-109.0,22.0,-69.0,964.0,-163.0,14400,3425,-367,
258,17.380634307861328,0.06707525253295898,14.908628178606213,14.844107265021139,2.4685989777430084e-38,-49.0,849.0,-41.0,33.1875,-49.375,-7.75,28.25,-42.5625,0.875,304.875,-4.1875,-101.3125,0.65692138671875,0.408203125,0.29327392578125,0.56195068359375,23.0,-109.0,150.0,-72.0,958.0,-192.0,14347,3287,299,
259,17.446271896362305,0.06563758850097656,15.235172754482317,14.845578559050411,2.4685989777430084e-38,4.0,981.0,-59.0,32.375,-50.5625,-6.875,18.1875,-44.8125,-6.6875,307.625,-4.75,-102.375,0.667236328125,0.40234375,0.2764892578125,0.56256103515625,57.0,15.0,165.0,-82.0,954.0,-209.0,14319,3215,518,
260,17.51674485206604,0.07047295570373535,14.189840485816262,14.842940409064296,2.4685989777430084e-38,-21.0,1106.0,-73.0,32.375,-51.25,-6.875,-1.875,-44.5625,-6.0625,313.125,-6.0,-102.4375,0.6773681640625,0.38519287109375,0.2491455078125,0.5750732421875,117.0,222.0,183.0,-103.0,952.0,-210.0,14353,3167,595,
261,17.586015939712524,0.06927108764648438,14.436037226719533,14.841337622730855,2.46967517496361e-38,-200.0,1497.0,-196.0,32.375,-50.1875,-9.0,-5.375,-16.6875,9.9375,314.4375,-6.0,-101.25,0.6766357421875,0.37371826171875,0.24566650390625,0.58489990234375,-97.0,541.0,-5.0,-102.0,956.0,-191.0,14371,3097,710,
262,17.653533935546875,0.06751799583435059,14.810866164532065,14.84122108109136,2.46967517496361e-38,-162.0,933.0,-501.0,30.75,-49.375,-11.5625,-27.0,9.1875,41.4375,313.25,-4.375,-100.25,0.678466796875,0.35858154296875,0.25433349609375,0.58856201171875,-87.0,-28.0,-327.0,-75.0,962.0,-174.0,14430,3034,800,
263,17.716610193252563,0.06307625770568848,15.853825771750182,14.844826246736778,2.46967517496361e-38,-274.0,959.0,-150.0,29.25,-50.1875,-12.5,-6.0625,-15.0,17.5,311.1875,-2.3125,-99.6875,0.68231201171875,0.34478759765625,0.26629638671875,0.5870361328125,-233.0,81.0,-15.0,-40.0,965.0,-165.0,14541,2931,906,
264,17.78229331970215,0.06568312644958496,15.224610247009927,14.84622906919983,2.46967517496361e-38,234.0,1044.0,-274.0,27.375,-51.6875,-12.875,-8.75,47.6875,-5.6875,309.5,-1.9375,-98.6875,0.6746826171875,0.34686279296875,0.27777099609375,0.58935546875,223.0,67.0,-83.0,-33.0,968.0,-148.0,14600,2841,875,
265,17.848299503326416,0.06600618362426758,15.150095719703812,14.847352822077617,2.46967517496361e-38,-305.0,883.0,-144.0,28.25,-52.5,-12.5,-17.1875,63.3125,-31.4375,306.625,-2.5625,-98.125,0.65899658203125,0.36968994140625,0.29400634765625,0.5853271484375,-260.0,-86.0,-5.0,-44.0,969.0,-139.0,14673,2915,798,
266,17.912291049957275,0.06399154663085938,15.627064083457526,14.850138335633758,2.46967517496361e-38,-165.0,764.0,-37.0,30.1875,-52.875,-10.25,-5.875,29.4375,-30.75,305.625,-4.4375,-97.625,0.64044189453125,0.39532470703125,0.30078125,0.585693359375,-34.0,-225.0,100.0,-76.0,968.0,-130.0,14662,2972,845,
267,17.978008031845093,0.06571698188781738,15.216766979759612,14.851478513473422,2.468527231261635e-38,-21.0,695.0,53.0,32.75,-50.875,-10.6875,9.1875,30.75,-21.375,305.0625,-5.5625,-98.0625,0.632568359375,0.41204833984375,0.3023681640625,0.5819091796875,73.0,-270.0,191.0,-95.0,966.0,-137.0,15602,3788,-3957,
268,18.047979593276978,0.06997156143188477,14.291520433961878,14.849307570130023,2.468527231261635e-38,-11.0,935.0,-9.0,33.875,-48.6875,-8.5625,2.125,29.75,2.5,302.8125,-5.75,-99.0625,0.62762451171875,0.4296875,0.3104248046875,0.57012939453125,87.0,-28.0,144.0,-98.0,963.0,-154.0,15470,3377,-932,
269,18.114357948303223,0.06637835502624512,15.065151879774865,14.850098511230827,2.468527231261635e-38,-158.0,932.0,-29.0,34.25,-49.375,-7.25,7.125,60.8125,11.9375,299.9375,-4.9375,-98.75,0.62139892578125,0.435791015625,0.3255615234375,0.5638427734375,-73.0,-32.0,119.0,-81.0,965.0,-151.0,15339,3438,-699,
270,18.182267427444458,0.06790947914123535,14.725484757735234,14.849633087700594,2.468527231261635e-38,-167.0,1354.0,-183.0,34.6875,-49.75,-8.1875,24.125,3.5,-27.3125,297.3125,-4.875,-100.5,0.6201171875,0.45635986328125,0.32989501953125,0.54620361328125,-46.0,350.0,-47.0,-87.0,959.0,-182.0,15278,3455,-483,
271,18.25073528289795,0.06846785545349121,14.60539392356577,14.848716821504913,2.468527231261635e-38,-459.0,1102.0,-304.0,35.75,-49.1875,-5.1875,16.4375,-49.5,-16.75,301.5,-6.5625,-101.5,0.6268310546875,0.4542236328125,0.30902099609375,0.55255126953125,-347.0,147.0,-109.0,-112.0,954.0,-194.0,15286,3417,-253,
272,18.315319061279297,0.06458377838134766,15.483764268099998,14.850956136223664,2.4692446960753693e-38,-210.0,527.0,-449.0,36.0625,-49.75,-5.5625,-2.4375,-1.1875,2.25,304.3125,-7.375,-101.5625,0.63134765625,0.4482421875,0.2952880859375,0.55975341796875,-78.0,-490.0,-280.0,-126.0,952.0,-195.0,15357,3444,-54,
273,18.382047176361084,0.06672811508178711,14.986186838551083,14.851447033117841,2.4692446960753693e-38,-392.0,1024.0,-206.0,34.875,-47.5625,-6.0,-5.625,-20.0625,7.1875,304.4375,-6.9375,-101.1875,0.6341552734375,0.44122314453125,0.29571533203125,0.5618896484375,-274.0,70.0,-16.0,-118.0,954.0,-189.0,15427,3315,153,
274,18.448352813720703,0.06630563735961914,15.0816738941267,14.852274496626949,2.4692446960753693e-38,-94.0,740.0,-196.0,34.875,-48.6875,-8.1875,4.3125,-1.125,19.25,305.4375,-6.3125,-100.75,0.64068603515625,0.4271240234375,0.29217529296875,0.56719970703125,13.0,-217.0,-14.0,-108.0,957.0,-182.0,15506,3205,385,
275,18.516931533813477,0.06857872009277344,14.5817827840356,14.851272712102803,2.4692446960753693e-38,65.0,928.0,-120.0,34.1875,-49.75,-7.25,10.75,-19.1875,10.0625,304.875,-5.3125,-101.5625,0.64959716796875,0.421875,0.2923583984375,0.56085205078125,156.0,-27.0,75.0,-91.0,956.0,-196.0,15541,3135,582,
276,18.584153413772583,0.06722187995910645,14.876108799818407,14.85136254823738,2.4692446960753693e-38,1.0,826.0,-77.0,33.75,-49.75,-6.5,11.5,-20.8125,6.5,306.0625,-5.125,-102.0625,0.657958984375,0.414306640625,0.28497314453125,0.56060791015625,89.0,-128.0,127.0,-87.0,954.0,-205.0,15506,3140,705,
277,18.65334725379944,0.06919384002685547,14.452153538694784,14.849881698502063,2.4692446960753693e-38,-144.0,951.0,-18.0,31.875,-51.25,-6.0,-1.25,-54.375,-1.5625,309.0625,-5.625,-102.4375,0.66644287109375,0.404052734375,0.2694091796875,0.565673828125,-48.0,-1.0,192.0,-96.0,952.0,-210.0,15584,3136,883,
278,18.72083854675293,0.06749129295349121,14.816726072933704,14.849762167743187,2.470392639777344e-38,40.0,999.0,-46.0,31.5625,-50.1875,-8.1875,-5.5,-50.375,3.6875,313.625,-6.125,-101.3125,0.67327880859375,0.3800048828125,0.24951171875,0.5831298828125,145.0,43.0,145.0,-105.0,956.0,-191.0,15677,3147,972,
279,18.78882670402527,0.06798815727233887,14.708443942587222,14.849250801819775,2.470392639777344e-38,-104.0,1553.0,-108.0,30.75,-50.1875,-9.0,-6.8125,-3.75,19.6875,315.0625,-5.9375,-101.0,0.6776123046875,0.36871337890625,0.24298095703125,0.58807373046875,-2.0,595.0,77.0,-102.0,957.0,-186.0,15806,3032,1069,
280,18.856217622756958,0.06739091873168945,14.838794585683052,14.849213431970423,2.470392639777344e-38,-196.0,922.0,-447.0,30.0625,-48.6875,-9.5,-22.625,26.375,39.4375,311.75,-3.9375,-99.9375,0.67529296875,0.3609619140625,0.26275634765625,0.58709716796875,-145.0,-40.0,-274.0,-74.0,962.0,-172.0,15905,2961,1089,
281,18.92506456375122,0.0688469409942627,14.52497359444531,14.848033889312225,2.470392639777344e-38,-315.0,1030.0,-161.0,28.5,-49.0625,-10.75,-14.0625,16.9375,23.5625,307.75,-1.5625,-98.8125,0.67218017578125,0.353271484375,0.2864990234375,0.584228515625,-288.0,61.0,-11.0,-27.0,968.0,-150.0,15962,3069,883,
282,18.992528915405273,0.06746435165405273,14.822643003046302,14.84794369702201,2.470392639777344e-38,112.0,967.0,-240.0,28.0625,-50.1875,-10.75,-1.25,23.5625,-0.5625,306.8125,-0.875,-97.75,0.668212890625,0.34796142578125,0.294189453125,0.58807373046875,128.0,-3.0,-107.0,-15.0,971.0,-132.0,16004,3117,987,
283,19.059791088104248,0.06726217269897461,14.867197413848107,14.848011643560367,2.4691012031126224e-38,-171.0,806.0,-86.0,27.25,-50.5625,-12.0625,-11.8125,44.125,-30.375,304.75,-1.6875,-97.4375,0.65240478515625,0.37164306640625,0.306640625,0.58502197265625,-174.0,-139.0,54.0,-34.0,972.0,-125.0,16114,3195,914,
284,19.125502347946167,0.06571125984191895,15.218092034845961,14.84928316303796,2.4691012031126224e-38,-161.0,756.0,-12.0,27.6875,-50.1875,-10.375,7.125,23.75,-25.9375,304.5,-3.4375,-97.1875,0.64111328125,0.38922119140625,0.30780029296875,0.58544921875,-94.0,-251.0,101.0,-59.0,971.0,-122.0,16184,3281,1001,
285,19.193070650100708,0.06756830215454102,14.799839097818646,14.84910909753279,2.4691012031126224e-38,-68.0,751.0,40.0,30.25,-48.25,-11.25,19.5,27.25,-12.9375,303.5625,-4.3125,-98.4375,0.63775634765625,0.4080810546875,0.30865478515625,0.57574462890625,-4.0,-206.0,205.0,-74.0,967.0,-143.0,16218,3382,912,
286,19.259212732315063,0.06614208221435547,15.118967630307836,14.85003587504489,2.4691012031126224e-38,-29.0,1023.0,156.0,31.75,-48.25,-7.0,-9.125,-18.0625,4.25,303.3125,-4.375,-98.75,0.63800048828125,0.4112548828125,0.30902099609375,0.572998046875,45.0,57.0,305.0,-75.0,966.0,-149.0,16278,3364,1026,
287,19.32910990715027,0.06989717483520508,14.306729883685234,14.848071193067835,2.4691012031126224e-38,-76.0,1510.0,44.0,31.75,-48.25,-8.25,19.1875,52.1875,5.25,300.125,-3.3125,-99.625,0.638916015625,0.419189453125,0.32159423828125,0.55908203125,-11.0,766.0,265.0,-56.0,965.0,-164.0,16358,3390,807,
288,19.392473936080933,0.06336402893066406,15.781824749405496,14.851122190457488,2.4691012031126224e-38,-81.0,1254.0,-116.0,31.5,-49.0625,-7.875,10.5625,-9.1875,-17.625,299.3125,-3.875,-100.0,0.63330078125,0.431396484375,0.3243408203125,0.55462646484375,-375.0,446.0,-296.0,-66.0,963.0,-170.0,16428,3333,1426,
289,19.455718278884888,0.06324434280395508,15.81169090648632,14.854244693378863,2.4684554847802615e-38,-439.0,1151.0,-422.0,31.75,-47.1875,-5.6875,-3.875,-63.0625,-23.0,304.0,-5.5625,-100.75,0.64044189453125,0.4287109375,0.30377197265625,0.5601806640625,-466.0,348.0,-278.0,-89.0,959.0,-184.0,16605,3606,-503,
290,19.521718740463257,0.06600046157836914,15.151409188443282,14.855249368945586,2.4684554847802615e-38,-79.0,485.0,-308.0,31.75,-46.75,-6.5625,-18.8125,-9.8125,-10.0625,307.75,-7.1875,-99.125,0.63543701171875,0.41864013671875,0.285400390625,0.5826416015625,47.0,-402.0,-127.0,-122.0,960.0,-155.0,16616,3327,1278,
291,19.587056398391724,0.0653376579284668,15.305109361202135,14.856749992504936,2.4684554847802615e-38,-514.0,1127.0,-111.0,33.6875,-46.0625,-8.25,-15.4375,-5.375,9.8125,307.0,-6.625,-98.125,0.63201904296875,0.41363525390625,0.29217529296875,0.586669921875,-400.0,163.0,26.0,-113.0,964.0,-138.0,16699,3274,1207,
292,19.655060529708862,0.06800413131713867,14.704988956280896,14.856224917681553,2.4684554847802615e-38,14.0,840.0,-180.0,32.5625,-46.0625,-10.375,10.3125,-43.625,24.1875,308.625,-5.6875,-97.75,0.64044189453125,0.39630126953125,0.28656005859375,0.59210205078125,61.0,-193.0,-73.0,-100.0,966.0,-131.0,16768,3304,1053,
293,19.727388620376587,0.07232809066772461,13.825886882511554,14.852447307564967,2.4684554847802615e-38,65.0,878.0,-76.0,31.5,-47.875,-10.375,20.25,-19.5,7.5625,309.9375,-5.1875,-98.5,0.6541748046875,0.3817138671875,0.2760009765625,0.59173583984375,160.0,-64.0,59.0,-88.0,965.0,-144.0,16825,3349,1045,
294,19.79698085784912,0.06959223747253418,14.36941872137202,14.850749319355668,2.4684554847802615e-38,-92.0,814.0,-82.0,30.6875,-48.6875,-9.0625,39.125,-33.3125,-10.125,312.0,-5.4375,-100.625,0.669677734375,0.3792724609375,0.259521484375,0.58343505859375,0.0,-145.0,98.0,-93.0,959.0,-180.0,16879,3258,924,
295,19.869498252868652,0.07251739501953125,13.789794844818516,14.846877170509803,2.4684554847802615e-38,-58.0,885.0,-56.0,30.6875,-47.5625,-9.0625,-9.6875,-59.375,-5.75,316.6875,-6.8125,-101.1875,0.67803955078125,0.369873046875,0.234130859375,0.5904541015625,58.0,-69.0,133.0,-117.0,955.0,-189.0,16976,3143,883,
296,19.937618494033813,0.06812024116516113,14.679924540716863,14.84630674865084,2.4684554847802615e-38,163.0,1138.0,193.0,30.25,-47.875,-9.875,-15.625,4.25,-2.5625,319.625,-7.75,-100.375,0.6773681640625,0.36151123046875,0.22100830078125,0.60137939453125,296.0,183.0,369.0,-132.0,955.0,-178.0,17048,3224,998,
297,20.006508827209473,0.06889033317565918,14.51582470141583,14.845168768079656,2.4684554847802615e-38,-75.0,1299.0,-284.0,30.1875,-46.75,-10.375,-0.625,18.8125,24.0,316.9375,-6.3125,-100.3125,0.67822265625,0.35980224609375,0.235107421875,0.5960693359375,31.0,340.0,-109.0,-107.0,958.0,-175.0,17127,3319,1079,
298,20.076812505722046,0.07030367851257324,14.224006782534973,14.842993623368635,2.4684554847802615e-38,-335.0,704.0,-313.0,29.0625,-48.25,-10.375,-27.25,10.375,42.25,313.6875,-3.9375,-99.875,0.68096923828125,0.3494873046875,0.2529296875,0.59173583984375,-267.0,-259.0,-145.0,-67.0,963.0,-168.0,17218,3389,1023,
299,20.142788410186768,0.06597590446472168,15.157048745496398,14.844022282872583,2.4684554847802615e-38,-129.0,1007.0,-127.0,28.375,-49.0625,-10.375,-23.875,19.0,15.9375,310.6875,-2.0625,-97.8125,0.6728515625,0.33990478515625,0.27410888671875,0.59716796875,-92.0,36.0,6.0,-36.0,970.0,-133.0,17291,3431,1052,
300,20.209514379501343,0.0667259693145752,14.986668762885493,14.84449326027805,2.46967517496361e-38,-61.0,1159.0,-154.0,26.875,-50.1875,-12.0625,-8.0625,61.8125,2.3125,307.3125,-1.3125,-96.6875,0.66180419921875,0.346923828125,0.294677734375,0.595703125,-39.0,186.0,-40.0,-22.0,973.0,-114.0,17367,3460,1043,
301,20.27729558944702,0.06778120994567871,14.753351272445874,14.844188598633952,2.46967517496361e-38,-215.0,888.0,-57.0,26.5,-48.6875,-12.0625,-12.3125,57.25,-39.625,304.0,-2.5,-95.8125,0.6395263671875,0.37677001953125,0.3143310546875,0.591796875,-172.0,-85.0,42.0,-43.0,974.0,-99.0,17408,3555,1087,
302,20.339689254760742,0.0623936653137207,16.027268072358215,14.847817791971103,2.46967517496361e-38,-68.0,661.0,25.0,28.6875,-47.1875,-10.375,-2.3125,21.6875,-31.5625,303.625,-4.3125,-95.8125,0.6256103515625,0.39935302734375,0.31634521484375,0.5908203125,5.0,-310.0,125.0,-74.0,972.0,-99.0,17458,3623,1032,
303,20.405001878738403,0.06531262397766113,15.310975721049424,14.849300274542971,2.46967517496361e-38,-197.0,738.0,138.0,31.6875,-47.1875,-10.0,7.125,23.0,-14.3125,303.375,-5.625,-96.25,0.618896484375,0.414306640625,0.3157958984375,0.587890625,-102.0,-234.0,233.0,-94.0,970.0,-107.0,17541,3545,1186,
304,20.46870708465576,0.0637052059173584,15.697304256378205,14.851939535931495,2.46967517496361e-38,45.0,981.0,116.0,33.1875,-46.375,-7.375,-2.9375,8.5,-5.3125,302.625,-6.0,-96.875,0.6148681640625,0.426513671875,0.3182373046875,0.58203125,161.0,37.0,240.0,-103.0,968.0,-117.0,17691,3501,789,
305,20.534339904785156,0.06563282012939453,15.236279623951992,14.853167981743853,2.46967517496361e-38,-182.0,1038.0,42.0,33.1875,-46.0625,-7.375,16.25,36.875,13.8125,300.5,-5.4375,-97.375,0.61376953125,0.4332275390625,0.32720947265625,0.5731201171875,-89.0,70.0,168.0,-93.0,968.0,-126.0,17734,3288,1717,
306,20.60242533683777,0.0680854320526123,14.687429746017628,14.852620261793286,2.468025005892021e-38,-504.0,1334.0,-351.0,32.875,-45.6875,-5.6875,34.6875,-50.625,-15.1875,301.75,-6.375,-99.125,0.618896484375,0.4427490234375,0.31573486328125,0.56683349609375,-395.0,372.0,-196.0,-109.0,962.0,-155.0,17912,3478,19,
307,20.667006969451904,0.06458163261413574,15.484278726349793,14.854594110012135,2.468025005892021e-38,-185.0,852.0,-448.0,33.5625,-45.25,-5.6875,-0.25,-45.25,-11.5625,305.875,-7.5,-99.25,0.62640380859375,0.43292236328125,0.2947998046875,0.57733154296875,-57.0,-106.0,-291.0,-128.0,959.0,-156.0,17983,3240,1067,
309,20.78121829032898,0.047950029373168945,20.8550445760428,14.869195620922778,2.468025005892021e-38,-505.0,1072.0,-132.0,33.5625,-44.5625,-7.875,-20.5,-14.25,17.4375,305.25,-7.0,-97.125,0.6181640625,0.4239501953125,0.3040771484375,0.58795166015625,-403.0,76.0,11.0,-120.0,965.0,-121.0,18091,3219,1063,
310,20.84817624092102,0.06695795059204102,14.934746227416127,14.86940614937477,2.468025005892021e-38,45.0,718.0,-70.0,33.5625,-44.875,-8.6875,26.0625,-39.3125,20.1875,306.625,-5.9375,-97.0,0.63018798828125,0.40435791015625,0.29736328125,0.5924072265625,178.0,-186.0,41.0,-102.0,968.0,-118.0,18158,3271,1054,
311,20.91915988922119,0.0709836483001709,14.087751530764761,14.866753810713302,2.468025005892021e-38,4.0,974.0,-16.0,31.6875,-46.0625,-11.25,25.6875,-15.6875,10.6875,307.875,-5.3125,-98.625,0.646728515625,0.395751953125,0.28619384765625,0.5858154296875,96.0,9.0,130.0,-91.0,965.0,-146.0,18135,3153,984,
312,20.986687660217285,0.06752777099609375,14.80872217828494,14.866567085354417,2.4701056538518504e-38,-55.0,777.0,-137.0,31.5,-45.6875,-7.875,25.5,-12.1875,7.25,307.75,-4.5,-100.0,0.6583251953125,0.3914794921875,0.28289794921875,0.57733154296875,22.0,-185.0,32.0,-77.0,962.0,-169.0,18158,3176,838,
313,21.053481340408325,0.06679368019104004,14.971476300450112,14.8668999173668,2.4701056538518504e-38,-130.0,932.0,-53.0,31.375,-47.1875,-8.6875,-10.625,-55.125,3.4375,310.875,-4.9375,-100.375,0.667724609375,0.37994384765625,0.26605224609375,0.58221435546875,-56.0,-92.0,150.0,-85.0,960.0,-176.0,18207,3216,851,
314,21.121346712112427,0.06786537170410156,14.73505522610382,14.866476284863545,2.4701056538518504e-38,157.0,1052.0,164.0,29.5,-48.25,-10.75,6.75,-43.25,-4.8125,315.4375,-5.6875,-100.125,0.6766357421875,0.36053466796875,0.2431640625,0.59417724609375,254.0,91.0,336.0,-97.0,960.0,-172.0,18207,3184,820,
315,21.185451984405518,0.06410527229309082,15.59934096259628,14.868693867464787,2.4701056538518504e-38,32.0,1499.0,-57.0,30.0,-47.5625,-11.6875,10.5,23.1875,25.3125,314.8125,-4.9375,-100.25,0.67974853515625,0.35626220703125,0.2462158203125,0.59197998046875,124.0,433.0,-12.0,-80.0,961.0,-176.0,18307,3192,1452,
316,21.250768423080444,0.06531643867492676,15.310081509141945,14.870050518116447,2.4701056538518504e-38,-347.0,871.0,-495.0,28.5,-47.875,-10.75,-38.5625,19.75,29.375,311.25,-2.9375,-100.3125,0.6796875,0.3515625,0.26812744140625,0.585205078125,-308.0,-287.0,-266.0,-46.0,965.0,-167.0,18433,2941,1730,
317,21.316632509231567,0.06586408615112305,15.182781063803601,14.871016792296682,2.4701056538518504e-38,-146.0,925.0,-105.0,25.75,-48.5625,-12.5625,-16.625,34.125,16.5,307.375,-0.9375,-97.625,0.6689453125,0.3448486328125,0.2918701171875,0.59027099609375,-129.0,-46.0,25.0,-16.0,971.0,-130.0,18612,3248,692,
320,21.49124240875244,0.05481100082397461,18.244512688456417,14.889785984158738,2.468670724224382e-38,-109.0,859.0,48.0,25.75,-46.75,-13.875,-3.375,36.9375,-35.0625,303.0,-1.8125,-95.1875,0.63720703125,0.373291015625,0.3216552734375,0.592529296875,-77.0,-116.0,137.0,-31.0,976.0,-89.0,18731,3385,1416,
322,22.015251398086548,0.44173502922058105,2.263800545237377,14.626224074279097,2.467666273485154e-38,-13.0,664.0,-26.0,33.1875,-42.375,-13.5,21.375,-30.25,21.625,308.9375,-5.875,-95.5,0.6314697265625,0.3861083984375,0.28955078125,0.60693359375,87.0,-306.0,67.0,-100.0,970.0,-93.0,19201,3501,994,
323,22.08311939239502,0.06786799430847168,14.734485823388686,14.626556794835546,2.467666273485154e-38,-23.0,991.0,-109.0,32.0625,-44.6875,-13.875,36.75,-22.0,4.3125,310.3125,-5.4375,-97.5,0.64886474609375,0.37957763671875,0.2769775390625,0.5985107421875,44.0,11.0,56.0,-93.0,967.0,-127.0,19425,3465,1176,
324,22.152635097503662,0.06951570510864258,14.38523853620057,14.625799530120501,2.4699621608891036e-38,80.0,780.0,6.0,31.6875,-43.875,-12.5625,26.6875,-12.875,5.0,311.4375,-5.125,-99.25,0.66302490234375,0.375244140625,0.266357421875,0.5904541015625,168.0,-183.0,164.0,-88.0,963.0,-157.0,19548,3490,1069,
325,22.22763466835022,0.07499957084655762,13.333409627715206,14.621438801257847,2.4699621608891036e-38,-101.0,1001.0,23.0,31.0,-45.75,-11.25,-6.625,-42.8125,2.25,313.75,-5.5,-100.1875,0.6728515625,0.36834716796875,0.25177001953125,0.590087890625,-7.0,40.0,197.0,-94.0,960.0,-173.0,19638,3479,1148,
326,22.296079874038696,0.06844520568847656,14.6102271143932,14.621404383269667,2.4699621608891036e-38,199.0,1112.0,72.0,30.1875,-44.6875,-12.0625,-8.75,11.875,-2.0625,316.1875,-5.9375,-99.8125,0.67559814453125,0.35870361328125,0.24005126953125,0.59771728515625,386.0,238.0,66.0,-102.0,960.0,-168.0,19717,3481,1175,
327,22.3651340007782,0.06905412673950195,14.481393759020005,14.620972089352202,2.4699621608891036e-38,-163.0,1345.0,-304.0,29.0625,-46.1875,-12.5625,2.6875,7.375,25.0625,314.4375,-4.8125,-99.8125,0.6776123046875,0.35528564453125,0.24932861328125,0.59368896484375,-80.0,382.0,-136.0,-82.0,962.0,-167.0,19834,3427,1171,
328,22.442327976226807,0.0771939754486084,12.954378812446915,14.615239575299448,2.4699621608891036e-38,-317.0,634.0,-354.0,28.375,-47.25,-13.0,-37.4375,17.0,48.8125,310.75,-2.0625,-98.375,0.67620849609375,0.34014892578125,0.272216796875,0.59405517578125,-314.0,-321.0,-167.0,-35.0,969.0,-143.0,19936,3537,1184,
334,23.143454551696777,0.040708065032958984,24.565156786262314,14.431726225396742,2.4688142171871287e-38,-331.0,979.0,-92.0,31.5625,-42.375,-10.75,-22.8125,-29.6875,1.5625,307.4375,-5.1875,-96.6875,0.6358642578125,0.3922119140625,0.29571533203125,0.5953369140625,-290.0,165.0,-9.0,-89.0,969.0,-114.0,20404,3727,1207,
335,23.205682039260864,0.062227487564086914,16.0700686970548,14.43611954318884,2.4688142171871287e-38,-53.0,817.0,-59.0,31.5625,-43.5,-11.6875,17.0,-36.4375,19.5625,308.875,-4.5625,-96.25,0.6436767578125,0.3741455078125,0.2879638671875,0.60235595703125,25.0,-154.0,47.0,-78.0,971.0,-106.0,20584,3548,1257,
337,23.335488080978394,0.06243705749511719,16.01612952497327,14.441523521194355,2.467738019966527e-38,17.0,892.0,-73.0,29.75,-43.875,-13.0,33.5,-25.0,-5.5625,312.5625,-4.375,-99.625,0.6732177734375,0.36102294921875,0.259521484375,0.59088134765625,101.0,-88.0,111.0,-75.0,963.0,-163.0,20745,3656,1085,
338,23.412187576293945,0.07669949531555176,13.03789543706734,14.436925165516893,2.467738019966527e-38,-32.0,878.0,-132.0,28.25,-44.25,-12.5625,5.75,-48.5,-4.5,316.25,-5.5,-100.6875,0.682861328125,0.3555908203125,0.23773193359375,0.59222412109375,62.0,-80.0,49.0,-94.0,959.0,-181.0,20788,3491,2210,
339,23.47924280166626,0.06705522537231445,14.913080888888889,14.43828503600389,2.467738019966527e-38,148.0,1057.0,163.0,28.5625,-43.5,-12.5625,-3.5625,-13.75,-2.875,319.5625,-6.5,-100.75,0.68707275390625,0.34747314453125,0.22021484375,0.598876953125,259.0,100.0,345.0,-111.0,957.0,-182.0,21002,3756,-245,
340,23.554595708847046,0.07535290718078613,13.270888110538422,14.434550446234017,2.467738019966527e-38,-117.0,1245.0,-306.0,30.0625,-43.5,-13.0,5.0,0.1875,31.5,317.8125,-4.6875,-101.0625,0.69476318359375,0.3367919921875,0.228515625,0.593017578125,-36.0,286.0,-117.0,-80.0,959.0,-188.0,21002,3801,648,
341,23.618667125701904,0.0640714168548584,15.607583679089066,14.437732586057864,2.46967517496361e-38,-370.0,824.0,-434.0,27.875,-44.25,-12.0625,-25.5625,-1.625,40.0625,316.125,-2.8125,-100.5625,0.69830322265625,0.32269287109375,0.23846435546875,0.59283447265625,-321.0,-138.0,-254.0,-48.0,962.0,-179.0,21132,3839,764,
357,24.805633783340454,0.038725852966308594,25.82254291132071,14.391891903191862,2.4689577101498756e-38,-346.0,1127.0,-191.0,32.25,-42.75,-9.5625,11.9375,-23.875,25.1875,313.5625,-5.5,-99.5625,0.66912841796875,0.36773681640625,0.2545166015625,0.59356689453125,-252.0,164.0,-29.0,-94.0,962.0,-162.0,21655,3219,681,
359,25.323416471481323,0.4375495910644531,2.2854552270686392,14.17660213440386,2.468168498854768e-38,-133.0,994.0,22.0,24.875,-44.0,-18.5625,23.5,-40.0,23.9375,337.8125,-7.9375,-98.75,0.7166748046875,0.24871826171875,0.125244140625,0.639404296875,-2.0,-9.0,129.0,-135.0,959.0,-148.0,22312,3156,770,
360,25.3866286277771,0.06321215629577637,15.819741938890585,14.180693516984034,2.468168498854768e-38,39.0,1044.0,-24.0,24.0625,-45.0625,-19.5,20.0,-37.8125,36.9375,338.5,-6.5,-99.375,0.72784423828125,0.22723388671875,0.12042236328125,0.6357421875,150.0,82.0,134.0,-111.0,961.0,-159.0,22525,3291,853,
361,25.451194763183594,0.06456613540649414,15.487995273438942,14.184009959414725,2.468168498854768e-38,-296.0,1288.0,-309.0,21.375,-47.0,-19.1875,26.9375,-7.8125,25.5,337.6875,-4.5625,-100.625,0.7403564453125,0.2098388671875,0.12322998046875,0.62664794921875,-217.0,328.0,-129.0,-78.0,960.0,-180.0,22507,3054,1181,
364,25.60409688949585,0.03968071937561035,25.201156020741077,14.216474870056127,2.469029456631249e-38,-280.0,704.0,-283.0,18.75,-47.25,-20.0,9.3125,-72.125,6.375,345.125,-5.375,-100.75,0.75054931640625,0.17242431640625,0.08233642578125,0.63262939453125,-166.0,-286.0,-112.0,-92.0,959.0,-182.0,22589,3085,1165,
365,25.673232078552246,0.06913518905639648,14.46441405091491,14.217142542988414,2.469029456631249e-38,-228.0,1163.0,-152.0,16.875,-48.0,-20.75,29.6875,-135.8125,17.5,354.75,-6.125,-101.0625,0.762451171875,0.1190185546875,0.029052734375,0.63531494140625,133.0,282.0,7.0,-104.0,956.0,-187.0,22563,3066,1183,
366,25.739986658096313,0.06675457954406738,14.980245652507778,14.219121589360945,2.469029456631249e-38,-186.0,851.0,-217.0,13.875,-48.375,-21.5625,29.9375,-108.375,26.0625,2.1875,-6.1875,-102.0,0.77349853515625,0.0712890625,-0.0120849609375,0.629638671875,-80.0,-101.0,-14.0,-106.0,953.0,-202.0,22535,3075,1182,
367,25.805163145065308,0.06517648696899414,15.342956432673665,14.221960075853309,2.469029456631249e-38,-78.0,905.0,-253.0,7.375,-50.25,-19.375,53.5,-124.375,26.0625,9.4375,-6.3125,-103.8125,0.78619384765625,0.02447509765625,-0.0509033203125,0.6153564453125,-22.0,-29.0,-28.0,-108.0,946.0,-232.0,22489,3084,1205,
368,25.87151598930359,0.06635284423828125,15.070944003679429,14.224137470419098,2.469029456631249e-38,10.0,1006.0,-298.0,5.5,-50.75,-18.5625,46.6875,-113.6875,29.9375,19.5625,-6.4375,-106.625,0.80029296875,-0.0423583984375,-0.10174560546875,0.58935546875,81.0,126.0,-3.0,-110.0,933.0,-279.0,22453,3103,1221,
369,25.938668727874756,0.06715273857116699,14.891425447083176,14.225865015325844,2.4668053157086726e-38,-121.0,870.0,-117.0,2.375,-51.5,-16.375,12.0,-120.0625,24.75,27.1875,-6.9375,-107.0625,0.79888916015625,-0.08868408203125,-0.1400146484375,0.57818603515625,-2.0,-59.0,168.0,-118.0,930.0,-286.0,22409,3165,1216,
370,26.004661798477173,0.06599307060241699,15.1531060893441,14.228218112095083,2.4668053157086726e-38,31.0,995.0,-199.0,-5.5,-51.875,-13.25,16.625,-103.0,17.5,35.9375,-7.625,-107.3125,0.79266357421875,-0.13970947265625,-0.1832275390625,0.564453125,162.0,67.0,90.0,-130.0,927.0,-289.0,22382,3220,1246,
371,26.07106924057007,0.06640744209289551,15.058553205544765,14.230333116628543,2.4668053157086726e-38,82.0,986.0,-243.0,-6.5625,-53.0625,-12.5625,0.4375,-77.75,2.875,42.875,-8.8125,-107.0,0.78326416015625,-0.1732177734375,-0.222412109375,0.55413818359375,173.0,79.0,17.0,-153.0,926.0,-281.0,22342,3297,1254,
372,26.13532257080078,0.06425333023071289,15.56339564672094,14.233610432480765,2.4668053157086726e-38,-151.0,970.0,-242.0,-7.5,-52.375,-11.6875,-17.3125,-36.6875,-5.0625,47.0625,-9.8125,-105.75,0.7747802734375,-0.18328857421875,-0.24176025390625,0.55462646484375,16.0,40.0,19.0,-167.0,929.0,-262.0,22297,3328,1273,
373,26.201303958892822,0.06598138809204102,15.155789062895218,14.235932707211786,2.4668053157086726e-38,-122.0,916.0,-257.0,-7.5,-52.0,-12.0,-19.25,-31.5625,-0.9375,49.0,-10.5625,-104.25,0.7659912109375,-0.185302734375,-0.25537109375,0.56011962890625,57.0,-18.0,-19.0,-180.0,934.0,-237.0,22290,3402,1267,
374,26.26958394050598,0.06827998161315918,14.64558097958357,14.236997466233808,2.4668053157086726e-38,-306.0,919.0,-245.0,-8.1875,-52.0,-13.75,-19.5625,-33.5,-10.3125,51.3125,-11.3125,-102.6875,0.75634765625,-0.18896484375,-0.27117919921875,0.56451416015625,-113.0,-18.0,-33.0,-193.0,937.0,-211.0,22279,3480,1308,
375,26.33922505378723,0.06964111328125,14.359333917616127,14.237320924750593,2.4706078792214645e-38,-278.0,858.0,-194.0,-9.0,-52.375,-14.5625,-11.25,-59.75,-8.1875,55.9375,-12.8125,-100.75,0.74285888671875,-0.19793701171875,-0.29998779296875,0.5648193359375,-61.0,-80.0,-15.0,-217.0,939.0,-178.0,22297,3536,1241,
376,26.405036687850952,0.0658116340637207,15.19488178992443,14.23970753931953,2.4706078792214645e-38,-353.0,905.0,-231.0,-9.6875,-52.0,-13.6875,0.3125,-77.3125,-11.6875,61.5,-14.1875,-99.4375,0.73040771484375,-0.21484375,-0.3316650390625,0.55706787109375,-113.0,-32.0,-75.0,-240.0,937.0,-156.0,22287,3539,1531,
377,26.47038722038269,0.06535053253173828,15.302094126231303,14.242330377007216,2.4706078792214645e-38,-247.0,951.0,-228.0,-9.0,-51.1875,-13.25,13.25,-105.8125,-18.9375,69.0625,-16.0625,-98.5,0.717529296875,-0.2373046875,-0.3712158203125,0.5394287109375,24.0,19.0,-88.0,-271.0,931.0,-139.0,22375,3755,299,
378,26.53632664680481,0.06593942642211914,15.165433705752612,14.244624172408365,2.4706078792214645e-38,-86.0,1098.0,-2.0,-8.1875,-53.0625,-10.1875,12.6875,-94.875,-17.3125,78.4375,-18.375,-97.4375,0.70098876953125,-0.2650146484375,-0.41876220703125,0.51287841796875,222.0,175.0,118.0,-309.0,922.0,-120.0,22276,3425,2115,
379,26.600290536880493,0.0639638900756836,15.633820876384727,14.24796467822515,2.4706078792214645e-38,-218.0,1011.0,-26.0,-9.0625,-51.0625,-8.5,8.1875,-65.3125,-17.4375,84.4375,-19.875,-96.5,0.68865966796875,-0.2816162109375,-0.44921875,0.49456787109375,115.0,95.0,78.0,-333.0,916.0,-105.0,22301,3445,1801,
380,26.664055585861206,0.06376504898071289,15.682572443447373,14.251395432939974,2.467020555152793e-38,-327.0,938.0,37.0,-8.375,-53.0625,-6.75,-0.0625,-61.5625,-13.4375,89.8125,-21.5,-95.125,0.67596435546875,-0.291015625,-0.47808837890625,0.47930908203125,33.0,30.0,119.0,-360.0,908.0,-81.0,22318,3389,1641,
381,26.729210376739502,0.0651547908782959,15.348065530099277,14.254068662333427,2.467020555152793e-38,-265.0,840.0,-1.0,-8.375,-52.0,-8.5,21.0,-66.0625,6.8125,93.9375,-21.875,-94.25,0.66259765625,-0.30950927734375,-0.4986572265625,0.46527099609375,100.0,-66.0,67.0,-365.0,907.0,-68.0,22328,3371,1512,
382,26.796539545059204,0.06732916831970215,14.852403868285652,14.25557204345939,2.467020555152793e-38,-315.0,847.0,43.0,-8.375,-51.5625,-5.875,19.5,-57.5,13.875,97.75,-21.375,-94.0,0.64788818359375,-0.33636474609375,-0.51495361328125,0.44940185546875,98.0,-75.0,96.0,-357.0,910.0,-64.0,22315,3387,1427,
383,26.866481065750122,0.06994152069091797,14.297658817273211,14.255681607974159,2.467020555152793e-38,-140.0,801.0,-8.0,-9.5,-52.375,-3.1875,30.5,-51.875,19.4375,101.25,-20.4375,-94.375,0.6334228515625,-0.36712646484375,-0.526611328125,0.4320068359375,202.0,-114.0,61.0,-343.0,915.0,-70.0,22332,3367,1300,
384,26.938267469406128,0.07178640365600586,13.930214484513142,14.25481428737427,2.467020555152793e-38,-59.0,928.0,86.0,-10.6875,-51.5625,-1.875,23.25,7.9375,10.6875,102.0,-19.5625,-95.625,0.63165283203125,-0.38427734375,-0.5233154296875,0.42364501953125,280.0,59.0,167.0,-329.0,919.0,-91.0,22325,3346,1197,
385,27.003969430923462,0.06570196151733398,15.220245741615683,14.257163228718484,2.467020555152793e-38,-212.0,1169.0,70.0,-11.875,-51.6875,1.0625,13.4375,24.9375,19.9375,100.5625,-18.5625,-97.125,0.6370849609375,-0.3917236328125,-0.51068115234375,0.42413330078125,99.0,247.0,187.0,-312.0,922.0,-116.0,22296,3327,1149,
386,27.072937965393066,0.06896853446960449,14.499365655518105,14.257780241413696,2.4696034284822364e-38,-445.0,1190.0,-57.0,-14.0625,-51.0,1.5,12.5,0.1875,16.0625,98.5,-17.0,-98.375,0.63995361328125,-0.400634765625,-0.4969482421875,0.42779541015625,-157.0,263.0,105.0,-287.0,927.0,-137.0,22251,3324,1124,
387,27.140974521636963,0.06803655624389648,14.697980838642305,14.258883729155748,2.4696034284822364e-38,-134.0,737.0,-149.0,-14.5,-51.0,1.5,-16.0,15.125,27.5,96.75,-15.625,-98.0,0.634521484375,-0.40557861328125,-0.4918212890625,0.43701171875,130.0,-197.0,-17.0,-264.0,935.0,-131.0,22212,3319,1123,
388,27.210897207260132,0.06992268562316895,14.301510176386147,14.25899326452484,2.4696034284822364e-38,-348.0,819.0,-206.0,-15.1875,-51.1875,-0.1875,-6.8125,4.625,27.5625,93.4375,-13.75,-97.5625,0.63116455078125,-0.4072265625,-0.48065185546875,0.45245361328125,-115.0,-124.0,-80.0,-233.0,944.0,-125.0,22171,3332,1133,
389,27.27821397781372,0.06731677055358887,14.855139243554916,14.260464424701215,2.4696034284822364e-38,-67.0,988.0,-385.0,-17.0,-50.875,0.6875,-12.25,-1.625,32.1875,91.625,-11.5625,-96.75,0.61822509765625,-0.419189453125,-0.476806640625,0.46337890625,153.0,63.0,-227.0,-197.0,953.0,-113.0,22140,3316,1188,
390,27.348164319992065,0.06995034217834473,14.295855729345963,14.260554947554635,2.4696034284822364e-38,-216.0,923.0,-104.0,-18.5,-50.875,1.5,-4.3125,-3.5,22.5,90.1875,-10.125,-96.0,0.6092529296875,-0.425048828125,-0.47430419921875,0.47247314453125,-43.0,-36.0,-2.0,-172.0,959.0,-101.0,22100,3299,1166,
391,27.421350479125977,0.07318615913391113,13.6637857736224,14.258962201648016,2.467881512929274e-38,-101.0,926.0,-170.0,-20.375,-50.5,0.6875,30.5,-38.0,18.1875,91.25,-8.75,-97.25,0.60107421875,-0.44891357421875,-0.47265625,0.46234130859375,61.0,-30.0,-56.0,-150.0,961.0,-123.0,22075,3290,1157,
392,27.491541147232056,0.0701906681060791,14.246908128708801,14.25893142551115,2.467881512929274e-38,87.0,951.0,-182.0,-21.1875,-49.0,1.5,40.0,-67.3125,15.0625,94.1875,-8.25,-99.0,0.59112548828125,-0.48040771484375,-0.4774169921875,0.43798828125,228.0,-6.0,-25.0,-140.0,957.0,-157.0,22030,3286,1233,
393,27.560062408447266,0.06852126121520996,14.594010417572783,14.259764516336654,2.467881512929274e-38,-40.0,935.0,-52.0,-21.875,-47.875,5.5,32.125,-70.5625,7.5625,99.25,-8.3125,-100.625,0.57940673828125,-0.50592041015625,-0.48681640625,0.4139404296875,102.0,-18.0,127.0,-142.0,953.0,-179.0,21976,3278,1215,
394,27.6301372051239,0.07007479667663574,14.270465951040267,14.259791657022037,2.467881512929274e-38,-136.0,1026.0,-44.0,-22.6875,-45.875,9.375,9.6875,-88.75,8.6875,105.6875,-8.875,-101.3125,0.5537109375,-0.5382080078125,-0.509765625,0.37921142578125,45.0,40.0,176.0,-153.0,950.0,-188.0,21936,3302,1135,
395,27.70010280609131,0.06996560096740723,14.29273794797875,14.259874873574068,2.467881512929274e-38,-14.0,1062.0,-81.0,-21.5625,-47.5,11.5,7.25,-106.25,7.4375,113.625,-9.5,-100.5625,0.52276611328125,-0.5631103515625,-0.53564453125,0.3502197265625,147.0,111.0,95.0,-162.0,950.0,-177.0,21855,3272,1365,
396,27.77223539352417,0.07213258743286133,13.863359621346836,14.258845007929677,2.467881512929274e-38,165.0,1373.0,-141.0,-19.75,-46.375,15.375,-3.875,-47.75,16.875,119.375,-9.375,-99.0,0.4866943359375,-0.5833740234375,-0.5596923828125,0.32806396484375,396.0,476.0,104.0,-161.0,954.0,-153.0,21799,3326,1066,
397,27.843246459960938,0.07101106643676758,14.082312098360877,14.25839478061198,2.4689577101498756e-38,-179.0,822.0,-433.0,-18.5625,-46.0,16.375,-30.875,-10.125,29.5625,118.875,-8.25,-97.625,0.47210693359375,-0.5855712890625,-0.56756591796875,0.3348388671875,-38.0,-139.0,-304.0,-140.0,961.0,-128.0,21727,3291,1253,
398,27.91216206550598,0.06891560554504395,14.510501534320696,14.259017236498881,2.4689577101498756e-38,-280.0,817.0,-82.0,-20.0625,-46.375,15.5,-13.5625,-28.0,16.9375,119.0625,-6.75,-95.5,0.4481201171875,-0.58892822265625,-0.57989501953125,0.34075927734375,-164.0,-151.0,10.0,-116.0,969.0,-93.0,21678,3332,1079,
399,27.978702068328857,0.06654000282287598,15.028553615513331,14.260847376893059,2.4689577101498756e-38,108.0,983.0,-213.0,-21.25,-45.5,15.0625,-2.375,-12.5,15.5,119.8125,-6.0625,-94.5625,0.43377685546875,-0.59295654296875,-0.58697509765625,0.340087890625,212.0,11.0,-135.0,-103.0,972.0,-77.0,21595,3297,1353,
