
Index,Time,Difference,Hz,AveHz,0x6103 Pressure,0x6103 Acceleration-X,0x6103 Acceleration-Y,0x6103 Acceleration-Z,0x6103 Magnetic-X,0x6103 Magnetic-Y,0x6103 Magnetic-Z,0x6103 Angular-Vel-X,0x6103 Angular-Vel-Y,0x6103 Angular-Vel-Z,0x6103 Heading,0x6103 Roll,0x6103 Pitch,0x6103 Quaternion-X,0x6103 Quaternion-Y,0x6103 Quaternion-Z,0x6103 Quaternion-W,0x6103 Linear-Acceleration-X,0x6103 Linear-Acceleration-Y,0x6103 Linear-Acceleration-Z,0x6103 Gravity-X,0x6103 Gravity-Y,0x6103 Gravity-Z,0x6103 Range,0x6103 Smoothed Range,0x6103 Velocity,
0,0.0009987354278564453,0.0009987354278564453,1001.2661733110527,0.0,101779.75,596.0,-739.0,29.0,-8.25,43.25,-14.75,15.25,-15.1875,-19.8125,337.6875,32.3125,84.5625,-0.4912109375,-0.46771240234375,0.14208984375,0.720947265625,72.0,85.0,-49.0,524.0,-824.0,78.0,0,0.0,,
1,0.02949357032775879,0.028494834899902344,35.09407945379698,33.905695000202094,101779.75,566.0,-704.0,71.0,-8.25,43.25,-14.75,12.125,-44.1875,-70.0,338.3125,34.0625,84.8125,-0.4847412109375,-0.4761962890625,0.13970947265625,0.72021484375,16.0,103.0,-1.0,550.0,-808.0,72.0,0,0.0,0.0,
2,0.05846047401428223,0.028966903686523438,34.52215710805294,34.21114922043548,101779.75,581.0,-779.0,97.0,-8.375,43.375,-15.1875,-9.3125,-40.6875,-100.3125,340.0625,36.875,85.625,-0.47198486328125,-0.4942626953125,0.13067626953125,0.71728515625,0.0,44.0,27.0,575.0,-791.0,64.0,0,0.0,0.0,
3,0.08827972412109375,0.029819250106811523,33.535383901943696,33.98288825512056,101779.75,591.0,-867.0,112.0,-8.375,43.375,-15.1875,-23.125,-19.8125,-85.25,342.5,39.625,86.5625,-0.45819091796875,-0.51708984375,0.10968017578125,0.714599609375,-34.0,-114.0,68.0,626.0,-753.0,44.0,0,0.0,0.0,
4,0.12050795555114746,0.03222823143005371,31.02869613464028,33.19282931741607,101779.75,539.0,-814.0,118.0,-12.0625,42.6875,-14.375,-29.3125,6.125,-46.4375,344.75,41.375,87.375,-0.45556640625,-0.5235595703125,0.09967041015625,0.71258544921875,-90.0,-93.0,87.0,643.0,-739.0,36.0,,0.0,0.0,
5,0.14758682250976562,0.027078866958618164,36.92916699683915,33.878363359094315,101778.25,501.0,-772.0,121.0,-16.875,42.0,-14.75,-23.375,21.1875,-3.375,346.125,41.875,87.75,-0.45831298828125,-0.52490234375,0.08648681640625,0.7120361328125,-153.0,-43.0,92.0,655.0,-729.0,28.0,0,0.0,0.0,
6,0.17743611335754395,0.02984929084777832,33.50163342572106,33.81498775229401,101778.25,537.0,-817.0,90.0,-16.875,42.0,-14.75,-2.75,16.3125,36.375,346.0625,41.1875,87.5,-0.46343994140625,-0.51873779296875,0.08697509765625,0.713134765625,-109.0,-80.0,59.0,646.0,-736.0,31.0,6,0.6000000000000001,1.6080784044346113,
7,0.20952630043029785,0.032090187072753906,31.16217421022913,33.40869373259734,101778.25,546.0,-787.0,89.0,-16.75,41.75,-13.75,19.25,3.125,67.875,343.8125,39.0,86.6875,-0.4700927734375,-0.5068359375,0.10162353515625,0.71539306640625,-71.0,-26.0,46.0,617.0,-760.0,43.0,0,0.5400000000000001,1.3298536958707428,
8,0.24302053451538086,0.03349423408508301,29.855884969925615,32.919028904093196,101778.25,573.0,-791.0,85.0,-16.75,41.75,-13.75,25.75,0.875,68.375,341.25,36.875,85.9375,-0.4744873046875,-0.49688720703125,0.11810302734375,0.71697998046875,-15.0,-9.0,30.0,588.0,-782.0,54.0,0,0.48600000000000015,1.0944879771310048,
9,0.26857566833496094,0.025555133819580078,39.13108055156457,33.51010929543857,101778.25,581.0,-764.0,76.0,-13.875,42.875,-14.1875,11.9375,3.4375,48.5625,339.4375,35.25,85.5,-0.47857666015625,-0.48919677734375,0.130126953125,0.71746826171875,15.0,34.0,14.0,566.0,-798.0,62.0,0,0.4374000000000001,0.8547872977760413,
10,0.29192161560058594,0.023345947265625,42.83398692810457,34.25577095216627,101778.25,568.0,-719.0,84.0,-13.875,42.875,-14.1875,2.9375,8.4375,26.9375,338.8125,34.625,85.375,-0.48077392578125,-0.485595703125,0.13397216796875,0.71771240234375,11.0,84.0,19.0,557.0,-804.0,64.0,,0.4374000000000001,0.8547872977760413,
11,0.31795406341552734,0.026032447814941406,38.41359856394475,34.596192550067634,101778.25,569.0,-734.0,63.0,-11.6875,42.875,-13.375,-5.5,10.25,-12.0625,339.0625,34.5625,85.1875,-0.48175048828125,-0.4835205078125,0.13250732421875,0.71875,13.0,69.0,-3.0,556.0,-804.0,66.0,0,0.3936600000000001,0.6519874498590026,
12,0.34256982803344727,0.024615764617919922,40.62437285705984,35.029354654165175,101778.25,570.0,-757.0,63.0,-11.6875,42.875,-13.375,-6.375,1.8125,-33.25,339.75,35.0625,85.25,-0.48040771484375,-0.4854736328125,0.128173828125,0.7191162109375,6.0,41.0,-2.0,563.0,-799.0,65.0,0,0.3542940000000001,0.471890928919001,
13,0.36551761627197266,0.02294778823852539,43.57718441558441,35.566001257589235,101778.25,584.0,-823.0,58.0,-10.875,44.375,-14.1875,5.1875,-14.8125,-43.4375,340.75,36.3125,85.3125,-0.47686767578125,-0.48956298828125,0.1236572265625,0.719482421875,5.0,2.0,0.0,575.0,-791.0,64.0,10,1.3188646000000002,3.796801328049554,
14,0.38942623138427734,0.023908615112304688,41.82592740327084,35.95032607391335,101778.25,585.0,-823.0,76.0,-10.875,44.375,-14.1875,6.5625,-24.0625,-39.9375,341.1875,37.125,85.5,-0.4698486328125,-0.49798583984375,0.11907958984375,0.71905517578125,-7.0,-44.0,14.0,592.0,-778.0,61.0,0,1.1869781400000001,3.0517553416908387,
15,0.4135730266571045,0.02414679527282715,41.41336308612842,36.269289903271606,101778.25,539.0,-761.0,105.0,-12.0625,43.1875,-14.5,4.75,-20.75,-33.625,341.4375,37.875,85.6875,-0.4658203125,-0.50341796875,0.11712646484375,0.71826171875,-62.0,10.0,47.0,602.0,-771.0,58.0,0,1.0682803260000002,2.414360860858633,
16,0.4375464916229248,0.023973464965820312,41.712785424456996,36.56754266421753,101778.25,557.0,-827.0,104.0,-12.0625,43.1875,-14.5,-11.5625,-2.5625,-34.375,342.375,38.875,86.0,-0.46221923828125,-0.50921630859375,0.1112060546875,0.7174072265625,-58.0,-66.0,51.0,615.0,-761.0,53.0,0,0.9614522934000003,1.8647244078970868,
17,0.46147704124450684,0.02393054962158203,41.78759016458773,36.83823566640404,101778.25,574.0,-873.0,99.0,-13.1875,42.5,-13.375,-15.625,4.375,-22.375,343.0625,39.375,86.1875,-0.46185302734375,-0.51123046875,0.1064453125,0.7169189453125,-47.0,-117.0,49.0,622.0,-756.0,49.0,0,0.8653070640600002,1.3941322600701025,
18,0.4852287769317627,0.02375173568725586,42.10218626407821,37.09590373806565,101778.25,548.0,-833.0,97.0,-13.1875,42.5,-13.375,-7.8125,3.3125,8.4375,343.375,39.375,86.4375,-0.4637451171875,-0.51092529296875,0.104248046875,0.71624755859375,-74.0,-77.0,50.0,622.0,-755.0,46.0,0,0.7787763576540002,0.9911511257710799,
19,0.5103292465209961,0.0251004695892334,39.83989209623952,37.230866405416364,101778.25,521.0,-780.0,99.0,-15.0625,41.6875,-12.6875,0.8125,1.9375,19.25,343.125,39.0625,86.4375,-0.4654541015625,-0.50927734375,0.1060791015625,0.716064453125,-96.0,-20.0,52.0,618.0,-759.0,47.0,0,0.7008987218886003,0.6636481072610914,
20,0.5355091094970703,0.02517986297607422,39.714274893004585,37.34763731429935,101783.75,533.0,-826.0,94.0,-15.0625,41.6875,-12.6875,10.625,3.375,10.875,342.5625,38.5625,86.1875,-0.46624755859375,-0.50665283203125,0.10968017578125,0.71685791015625,-78.0,-61.0,43.0,612.0,-764.0,50.0,0,0.6308088496997403,0.38787078257428864,
21,0.561366081237793,0.025856971740722656,38.67428908641611,37.408743958480215,101783.75,565.0,-906.0,76.0,-15.1875,42.1875,-13.0,13.125,-3.4375,4.0625,342.3125,38.5,85.9375,-0.46514892578125,-0.50616455078125,0.11151123046875,0.7176513671875,-45.0,-141.0,22.0,610.0,-765.0,53.0,0,0.5677279647297663,0.16167244947588674,
22,0.5864534378051758,0.025087356567382812,39.86071618642135,37.5136346413721,101783.75,573.0,-953.0,77.0,-15.1875,42.1875,-13.0,-6.0,-27.3125,-17.0,342.1875,38.8125,86.25,-0.46270751953125,-0.51043701171875,0.1121826171875,0.716064453125,-42.0,-191.0,27.0,615.0,-762.0,49.0,0,0.5109551682567897,-0.032301692667686926,
23,0.609576940536499,0.023123502731323242,43.24604328415148,37.731086054136675,101783.75,578.0,-1002.0,85.0,-13.25,42.1875,-14.5,-10.9375,-44.25,-21.875,342.125,39.25,87.0625,-0.46142578125,-0.51715087890625,0.1119384765625,0.71209716796875,-42.0,-244.0,47.0,620.0,-758.0,38.0,0,0.4598596514311107,-0.20649187183582426,
24,0.6341512203216553,0.02457427978515625,40.69295249922384,37.84586267582467,101783.75,612.0,-1132.0,110.0,-13.25,42.1875,-14.5,-17.1875,-61.875,-34.8125,342.1875,39.875,88.4375,-0.46063232421875,-0.52691650390625,0.1104736328125,0.70562744140625,-35.0,-349.0,84.0,629.0,-751.0,19.0,0,0.41387368628799964,-0.3396768977049248,
25,0.6571824550628662,0.023031234741210938,43.419296066252585,38.04118598633084,101783.75,567.0,-1060.0,156.0,-14.75,43.1875,-13.75,-68.9375,-88.75,-31.75,342.625,41.0,92.25,-0.46405029296875,-0.54736328125,0.10504150390625,0.6884765625,-75.0,-321.0,185.0,643.0,-739.0,-29.0,0,0.3724863176591997,-0.4562635788402908,
26,0.6811580657958984,0.023975610733032227,41.70905221706228,38.17028866804994,101783.75,502.0,-968.0,188.0,-14.75,43.1875,-13.75,-60.5625,-88.4375,-20.5625,342.5625,41.3125,95.0,-0.46771240234375,-0.560546875,0.10357666015625,0.675537109375,-145.0,-235.0,253.0,647.0,-733.0,-64.0,0,0.33523768589327974,-0.544050902720178,
27,0.7032408714294434,0.022082805633544922,45.284100969532076,38.39367291767104,101783.75,436.0,-923.0,225.0,-17.75,41.0,-10.6875,-42.8125,-76.5,-33.125,342.375,41.5625,97.4375,-0.469970703125,-0.57257080078125,0.10260009765625,0.66387939453125,-226.0,-167.0,323.0,651.0,-727.0,-95.0,0,0.30171391730395175,-0.6219743282368323,
28,0.7268645763397217,0.02362370491027832,42.33036281980118,38.52161862254981,101783.75,535.0,-1082.0,189.0,-17.75,41.0,-10.6875,0.4375,-68.875,-25.875,342.125,42.1875,100.125,-0.46728515625,-0.58905029296875,0.1024169921875,0.65130615234375,-123.0,-367.0,317.0,658.0,-715.0,-128.0,0,0.27154252557355657,-0.6743896586759639,
29,0.7500007152557373,0.023136138916015625,43.22242374278648,38.66662979129493,101783.75,411.0,-843.0,218.0,-18.1875,41.75,-7.0,70.0625,-73.9375,33.9375,339.8125,41.5625,100.3125,-0.4620361328125,-0.59466552734375,0.11529541015625,0.6478271484375,-239.0,-122.0,349.0,651.0,-721.0,-131.0,0,0.24438827301620092,-0.7143322948181003,
30,0.7721967697143555,0.022196054458618164,45.0530521928741,38.85020136913723,101783.75,81.0,-357.0,264.0,-18.1875,41.75,-7.0,115.5,-65.125,28.6875,336.3125,40.5625,99.25,-0.4527587890625,-0.59686279296875,0.1357421875,0.6483154296875,-556.0,376.0,384.0,638.0,-734.0,-120.0,0,0.21994944571458083,-0.7452692121888544,
31,0.7970278263092041,0.024831056594848633,40.272148556395166,38.89450151765926,101783.75,580.0,-1198.0,81.0,-19.1875,42.875,-7.875,187.375,-35.3125,-77.125,333.5625,41.9375,96.0625,-0.41748046875,-0.604248046875,0.15496826171875,0.66070556640625,-75.0,-474.0,159.0,656.0,-724.0,-77.0,0,0.19795450114312274,-0.7565103692354611,
32,0.8200414180755615,0.023013591766357422,43.45258272382571,39.022419227429076,101783.75,859.0,-1509.0,-17.0,-19.1875,42.875,-7.875,322.25,-35.4375,54.0625,329.0,41.75,91.0625,-0.384765625,-0.59930419921875,0.18756103515625,0.67645263671875,205.0,-778.0,-3.0,653.0,-730.0,-14.0,0,0.17815905102881047,-0.7648026143884258,
33,0.8461263179779053,0.02608489990234375,38.336355659549575,39.001268839934276,101783.75,655.0,-956.0,38.0,-19.1875,42.875,-7.875,405.25,-0.875,357.25,313.6875,33.8125,80.9375,-0.35626220703125,-0.554931640625,0.29534912109375,0.6912841796875,-47.0,131.0,-52.0,546.0,-804.0,127.0,0,0.16034314592592944,-0.7582581551910182,
34,0.8702661991119385,0.024139881134033203,41.425224691358025,39.06850574536301,101783.75,359.0,-401.0,56.0,-20.0625,40.6875,-14.75,332.125,122.8125,294.0625,305.6875,27.3125,73.75,-0.34808349609375,-0.50494384765625,0.3602294921875,0.70294189453125,-90.0,435.0,-186.0,450.0,-836.0,242.0,0,0.1443088313333365,-0.7507355095573435,
35,0.8947346210479736,0.024468421936035156,40.86900261137311,39.11774416307445,101783.75,552.0,-520.0,-115.0,-20.0625,40.6875,-14.75,143.5,158.6875,203.0625,302.25,22.3125,69.375,-0.35308837890625,-0.4610595703125,0.39276123046875,0.71307373046875,210.0,352.0,-483.0,337.0,-855.0,340.0,0,0.12987794820000284,-0.7378587328296067,
36,0.9183223247528076,0.023587703704833984,42.3949703842966,39.20192184121236,101781.25,358.0,-324.0,-196.0,-10.0625,37.0,-28.875,46.6875,132.375,137.3125,299.75,16.25,66.6875,-0.37445068359375,-0.41265869140625,0.41668701171875,0.71820068359375,82.0,540.0,-568.0,275.0,-864.0,371.0,0,0.11689015338000255,-0.7228794083433369,
37,0.9412457942962646,0.02292346954345703,43.623413903565336,39.30960459447636,101781.25,424.0,-457.0,-267.0,-10.0625,37.0,-28.875,-47.6875,39.1875,-7.875,300.0625,15.1875,66.8125,-0.3836669921875,-0.4036865234375,0.41455078125,0.7197265625,166.0,412.0,-640.0,257.0,-869.0,372.0,0,0.1052011380420023,-0.7058422360130466,
38,0.9671578407287598,0.025912046432495117,38.592088919150186,39.29038094895323,101781.25,604.0,-820.0,-311.0,2.875,37.5,-33.25,-112.8125,-192.125,-115.3125,301.1875,18.875,70.5625,-0.38140869140625,-0.4443359375,0.39788818359375,0.706298828125,286.0,54.0,-619.0,317.0,-875.0,308.0,0,0.09468102423780207,-0.6818543105217049,
39,0.9926471710205078,0.025489330291748047,39.23210176784211,39.28888444814222,101781.25,530.0,-696.0,-135.0,2.875,37.5,-33.25,-128.375,-335.0,-126.5625,300.125,22.875,74.875,-0.36602783203125,-0.49609375,0.39263916015625,0.68243408203125,148.0,175.0,-370.0,415.0,-867.0,191.0,0,0.08521292181402186,-0.6570222503070163,
40,1.0163729190826416,0.02372574806213379,42.1483022318692,39.35563339891348,101781.25,606.0,-909.0,-44.0,3.375,38.5,-30.375,-131.1875,-390.6875,-151.0625,297.4375,29.1875,83.625,-0.3294677734375,-0.58575439453125,0.38427734375,0.63299560546875,311.0,-384.0,-89.0,478.0,-850.0,94.0,0,0.07669162963261968,-0.6331931101438794,
41,1.0419280529022217,0.025555133819580078,39.13108055156457,39.350125841988046,101781.25,1680.0,-1571.0,743.0,3.375,38.5,-30.375,-45.625,-296.4375,-82.4375,294.875,31.5625,88.8125,-0.30560302734375,-0.6309814453125,0.3836669921875,0.60101318359375,1166.0,-736.0,726.0,513.0,-835.0,16.0,0,0.06902246666935771,-0.6065458720266474,
42,1.0651161670684814,0.023188114166259766,43.125542371835735,39.43231855694818,101781.25,92.0,-134.0,295.0,-8.875,41.25,-25.25,-201.375,-135.0,-137.0625,294.3125,33.4375,95.8125,-0.29412841796875,-0.6751708984375,0.36688232421875,0.568359375,-153.0,141.0,108.0,540.0,-813.0,-83.0,0,0.06212022000242194,-0.5818352527521797,
43,1.087095022201538,0.02197885513305664,45.49827522617317,39.55495989018352,101781.25,739.0,-1044.0,-242.0,-8.875,41.25,-25.25,-152.0,-74.25,-115.4375,297.5,35.75,100.3125,-0.2901611328125,-0.6990966796875,0.3387451171875,0.558837890625,-2.0,-412.0,-294.0,573.0,-782.0,-143.0,0,0.05590819800217975,-0.5578993354662504,
44,1.1120781898498535,0.02498316764831543,40.026949907908424,39.565563286463366,101781.25,481.0,-747.0,-244.0,-20.0,42.6875,-17.5625,-62.5625,-59.0,-54.4375,299.0625,36.75,104.375,-0.2886962890625,-0.71856689453125,0.32061767578125,0.54541015625,-128.0,49.0,81.0,587.0,-760.0,-164.0,0,0.05031737820196178,-0.5311700657559477,
45,1.136042594909668,0.023964405059814453,41.72855522613765,39.61119081417731,101781.25,501.0,-744.0,1.0,-20.0,42.6875,-17.5625,-96.625,-52.9375,-93.9375,301.0,38.0625,107.1875,-0.283203125,-0.73223876953125,0.30487060546875,0.53912353515625,-33.0,-47.0,51.0,604.0,-737.0,-228.0,0,0.0452856403817656,-0.5054738324565521,
46,1.159017562866211,0.02297496795654297,43.52563197874725,39.68878598029487,101781.25,583.0,-762.0,-283.0,-25.5,43.0625,-11.75,-95.625,-61.375,-100.0625,302.125,38.8125,108.8125,-0.27978515625,-0.7398681640625,0.29583740234375,0.5355224609375,-31.0,-38.0,-37.0,614.0,-723.0,-246.0,0,0.04075707634358904,-0.48080461479745695,
47,1.1829912662506104,0.023973703384399414,41.712370590633796,39.72979458163075,101781.25,678.0,-732.0,-378.0,-25.5,43.0625,-11.75,73.8125,-132.375,2.5,298.75,38.625,112.0625,-0.25634765625,-0.76226806640625,0.30267333984375,0.51153564453125,-29.0,49.0,5.0,612.0,-709.0,-287.0,0,0.03668136870923014,-0.45594083979473676,
48,1.2059667110443115,0.022975444793701172,43.5247286387315,39.80209367341012,101781.25,502.0,-674.0,-145.0,-29.5,41.0,-8.75,62.6875,-115.875,0.0,297.0625,38.1875,112.25,-0.2506103515625,-0.765625,0.3092041015625,0.50537109375,-104.0,38.0,146.0,606.0,-712.0,-292.0,0,0.03301323183830713,-0.43223794556448986,
49,1.2289421558380127,0.022975444793701172,43.5247286387315,39.87168945847335,101781.25,621.0,-704.0,-174.0,-29.5,41.0,-8.75,-16.125,-33.3125,-15.1875,295.625,38.0,113.4375,-0.2420654296875,-0.7734375,0.31195068359375,0.495849609375,0.0,-1.0,19.0,604.0,-708.0,-307.0,0,0.029711908654476416,-0.4091540455773295,
50,1.2509181499481201,0.021975994110107422,45.50419858094474,39.970640766603054,101781.25,624.0,-691.0,-182.0,-30.75,41.5625,-6.5,-11.4375,-20.75,-7.0625,295.5625,38.0,114.0625,-0.24078369140625,-0.77642822265625,0.31036376953125,0.4927978515625,20.0,14.0,132.0,603.0,-705.0,-315.0,0,0.026740717789028774,-0.38723785466420063,
51,1.2744193077087402,0.023501157760620117,42.551095149689054,40.018226098357026,101781.25,540.0,-700.0,-237.0,-30.75,41.5625,-6.5,-38.375,-6.5625,-4.3125,296.25,37.9375,115.125,-0.24395751953125,-0.77972412109375,0.30426025390625,0.48980712890625,-40.0,-6.0,35.0,603.0,-699.0,-328.0,0,0.024066646010125897,-0.36536160090716013,
52,1.2983942031860352,0.023974895477294922,41.71029654527735,40.04947023977847,101778.25,537.0,-691.0,-334.0,-30.75,41.5625,-6.5,-37.9375,-6.5,-8.5,296.625,38.0,115.5625,-0.24481201171875,-0.7811279296875,0.30157470703125,0.48883056640625,-66.0,5.0,-1.0,604.0,-696.0,-333.0,0,0.021659981409113307,-0.3441632883700479,
53,1.3233652114868164,0.02497100830078125,40.04644057439658,40.049413072037666,101778.25,569.0,-681.0,-295.0,-30.375,42.5,-6.5,-26.8125,-16.5,-45.875,298.5,39.0,117.4375,-0.238525390625,-0.78887939453125,0.28948974609375,0.48681640625,24.0,-26.0,17.0,617.0,-675.0,-351.0,0,0.019493983268201977,-0.3235694665671848,
54,1.3483383655548096,0.024973154067993164,40.04299966585517,40.049294286586786,101778.25,672.0,-669.0,-354.0,-30.25,42.0625,-3.875,8.6875,-23.125,-23.1875,298.75,39.375,118.0625,-0.23370361328125,-0.7919921875,0.2872314453125,0.48541259765625,50.0,-1.0,2.0,622.0,-668.0,-356.0,0,0.01754458494138178,-0.3039286897657684,
55,1.3733108043670654,0.02497243881225586,40.04414656966642,40.04920067992076,101778.25,574.0,-654.0,-267.0,-30.25,42.0625,-3.875,36.125,5.125,-7.5625,297.875,39.5,117.25,-0.2283935546875,-0.79034423828125,0.2930908203125,0.48712158203125,-88.0,-16.0,3.0,623.0,-672.0,-346.0,0,0.0157901264472436,-0.28523485803168025,
56,1.3952879905700684,0.02197718620300293,45.50173032903373,40.1350834942113,101778.25,673.0,-807.0,-395.0,-30.25,42.0625,-3.875,58.5625,-10.6875,-21.1875,297.4375,39.625,116.8125,-0.22430419921875,-0.78973388671875,0.29632568359375,0.48809814453125,47.0,-133.0,-53.0,625.0,-673.0,-341.0,0,0.014211113802519241,-0.26816389399285645,
57,1.4192612171173096,0.02397322654724121,41.71320026653141,40.16174000426353,101778.25,979.0,-1135.0,-313.0,-32.25,39.5,-5.0625,193.5625,-31.25,4.5,290.875,38.625,112.75,-0.20257568359375,-0.781005859375,0.33489990234375,0.48663330078125,366.0,-691.0,-305.0,612.0,-706.0,-296.0,0,0.012790002422267317,-0.2514531107618676,
58,1.4412379264831543,0.021976709365844727,45.50271759766536,40.24318187457713,101778.25,561.0,-790.0,314.0,-32.25,39.5,-5.0625,283.75,54.8125,233.1875,282.875,35.0,106.8125,-0.20697021484375,-0.75885009765625,0.38482666015625,0.48291015625,-1.0,-21.0,546.0,562.0,-768.0,-232.0,0,0.011511002180040586,-0.23599270084726928,
59,1.4642128944396973,0.02297496795654297,43.52563197874725,40.294686806850734,101778.25,540.0,-568.0,226.0,-32.5,39.5,-8.5,140.875,274.625,183.0,282.4375,31.3125,96.4375,-0.24981689453125,-0.69683837890625,0.42095947265625,0.52423095703125,250.0,9.0,191.0,510.0,-832.0,-94.0,0,0.010359901962036528,-0.22112147393624776,
60,1.4861886501312256,0.02197575569152832,45.5046922634611,40.37172534906803,101778.25,946.0,-1078.0,-40.0,-32.5,39.5,-8.5,108.75,490.75,115.8125,287.6875,29.25,88.5,-0.29046630859375,-0.6358642578125,0.42156982421875,0.5775146484375,566.0,-432.0,-171.0,480.0,-854.0,22.0,0,0.009323911765832875,-0.20720314922664473,
61,1.507166862487793,0.020978212356567383,47.66850401754765,40.473289002195045,101778.25,1101.0,-1406.0,-319.0,-24.5625,41.25,-18.25,83.4375,515.4375,170.625,289.875,27.375,85.0625,-0.3135986328125,-0.6029052734375,0.4212646484375,0.60052490234375,650.0,-539.0,-394.0,451.0,-867.0,74.0,0,0.008391520589249588,-0.1941825526922641,
62,1.5301413536071777,0.022974491119384766,43.526535356260766,40.51913233626442,101778.25,749.0,-934.0,-374.0,-24.5625,41.25,-18.25,57.1875,392.0,214.8125,292.375,19.875,78.625,-0.37457275390625,-0.51708984375,0.42803955078125,0.63958740234375,415.0,-31.0,-555.0,334.0,-903.0,181.0,0,0.007552368530324629,-0.18156997901784908,
63,1.553116798400879,0.022975444793701172,43.5247286387315,40.56359448617522,101778.25,469.0,-430.0,-319.0,-7.875,43.0625,-27.5625,91.0,155.625,64.4375,292.875,17.125,75.9375,-0.3883056640625,-0.48309326171875,0.43353271484375,0.6541748046875,179.0,478.0,-546.0,289.0,-908.0,227.0,0,0.0067971316772921665,-0.16967409902331776,
64,1.5770914554595947,0.02397465705871582,41.71071133784819,40.581032747621585,101778.25,445.0,-310.0,-270.0,-7.875,43.0625,-27.5625,124.5,-0.125,-99.3125,295.0,19.9375,72.1875,-0.356201171875,-0.47900390625,0.4310302734375,0.6766357421875,178.0,470.0,-535.0,334.0,-877.0,281.0,0,0.00611741850956295,-0.15836827667998737,
65,1.5990676879882812,0.021976232528686523,45.503704909140225,40.64868578626194,101778.25,668.0,-689.0,-192.0,1.875,41.1875,-30.75,100.625,-199.625,-272.375,297.0625,25.6875,70.75,-0.31011962890625,-0.50531005859375,0.42022705078125,0.68695068359375,243.0,144.0,-483.0,425.0,-834.0,291.0,0,0.0055056766586066555,-0.1479257361989073,
66,1.621042251586914,0.021974563598632812,45.50716083673292,40.714546419372795,101778.25,775.0,-951.0,-52.0,1.875,41.1875,-30.75,38.5,-253.0,-290.8125,299.25,32.5,71.0625,-0.24041748046875,-0.56451416015625,0.39215087890625,0.6854248046875,184.0,-195.0,-221.0,573.0,-757.0,242.0,0,0.00495510899274599,-0.1380960590087408,
67,1.6440179347991943,0.022975683212280273,43.52427698278456,40.753813314198176,101778.25,725.0,-918.0,89.0,1.875,41.1875,-30.75,-58.4375,-219.375,-239.6875,301.6875,38.625,73.8125,-0.22503662109375,-0.58380126953125,0.3797607421875,0.68145751953125,112.0,-183.0,-123.0,612.0,-735.0,212.0,0,0.004459598093471392,-0.12877371457828285,
68,1.6679918766021729,0.023973941802978516,41.71195576506156,40.76758463507701,101778.25,489.0,-556.0,230.0,-9.875,36.875,-34.75,-94.5,-78.75,-135.8125,304.375,42.3125,76.6875,-0.213134765625,-0.61260986328125,0.34588623046875,0.67791748046875,-180.0,142.0,100.0,670.0,-699.0,155.0,0,0.004013638284124253,-0.11995996587925888,
69,1.6903986930847168,0.022406816482543945,44.62927613028165,40.81877268497271,101782.25,443.0,-487.0,250.0,-9.875,36.875,-34.75,-150.9375,202.0,-30.8125,310.125,43.1875,77.125,-0.2335205078125,-0.60369873046875,0.3212890625,0.69122314453125,-227.0,209.0,91.0,671.0,-696.0,158.0,0,0.0036122744557118276,-0.11179617477907218,
70,1.7123491764068604,0.021950483322143555,45.55708342837281,40.8795127562042,101782.25,510.0,-585.0,163.0,-21.875,33.5625,-30.0,-216.0625,337.75,-19.0,316.4375,42.1875,75.5625,-0.293701171875,-0.56134033203125,0.26495361328125,0.7269287109375,-89.0,61.0,-161.0,647.0,-710.0,193.0,0,0.003251047010140645,-0.10416899830670677,
71,1.7340514659881592,0.021702289581298828,46.07808757937293,40.9445748252577,101782.25,545.0,-621.0,-11.0,-21.875,33.5625,-30.0,-237.875,374.5625,17.625,323.1875,40.1875,74.0625,-0.34033203125,-0.5234375,0.2288818359375,0.74688720703125,-105.0,177.0,-262.0,613.0,-733.0,216.0,0,0.00292594230912658,-0.09703389467303358,
72,1.7580265998840332,0.023975133895874023,41.70988176095626,40.95501171867901,101782.25,370.0,-339.0,-94.0,-19.0625,35.75,-28.1875,-178.8125,319.375,86.625,327.8125,37.0625,73.1875,-0.3614501953125,-0.50396728515625,0.2171630859375,0.7537841796875,-139.0,278.0,-296.0,591.0,-749.0,226.0,0,0.002633348078213922,-0.09024750876121529,
73,1.782496452331543,0.024469852447509766,40.86661340296588,40.953798199437905,101782.25,381.0,-332.0,-100.0,-19.0625,35.75,-28.1875,-50.5,140.625,130.875,329.25,31.875,72.625,-0.41229248046875,-0.44818115234375,0.21490478515625,0.7635498046875,-62.0,424.0,-315.0,497.0,-806.0,253.0,0,0.00237001327039253,-0.08388863620326056,
74,1.8062758445739746,0.02377939224243164,42.05321943491949,40.96827194046517,101782.25,468.0,-418.0,-34.0,-9.5,40.5,-24.875,23.375,30.25,123.875,327.4375,29.1875,72.375,-0.41595458984375,-0.44146728515625,0.22271728515625,0.76318359375,-10.0,396.0,-293.0,479.0,-815.0,259.0,0,0.0021330119433532768,-0.07797487881198763,
75,1.8281667232513428,0.021890878677368164,45.681126588758076,41.024704719826985,101782.25,660.0,-562.0,35.0,-9.5,40.5,-24.875,61.125,-24.1875,91.75,324.9375,27.4375,71.75,-0.41412353515625,-0.43194580078125,0.2490234375,0.761474609375,217.0,266.0,-242.0,442.0,-829.0,278.0,0,0.001919710749017949,-0.07251639561582586,
76,1.8540325164794922,0.025865793228149414,38.661099281954854,40.99172982376366,101782.25,756.0,-734.0,61.0,-3.25,43.0,-25.875,65.75,26.5,54.75,322.1875,25.625,70.3125,-0.4107666015625,-0.424072265625,0.26123046875,0.763671875,331.0,97.0,-235.0,424.0,-832.0,296.0,0,0.0017277396741161542,-0.06730882898944315,
77,1.878612756729126,0.02458024024963379,40.68308486182915,40.98769143570896,101782.25,766.0,-763.0,91.0,-3.25,43.0,-25.875,-82.5625,148.9375,-37.0625,324.375,24.5,69.375,-0.4136962890625,-0.4100341796875,0.2587890625,0.7705078125,359.0,72.0,-221.0,407.0,-835.0,313.0,10,1.0015549657067044,3.192160348037795,
78,1.90268874168396,0.024075984954833984,41.53516468281476,40.99461897849183,101782.25,597.0,-442.0,88.0,-0.6875,41.0625,-28.0625,-232.9375,234.6875,-173.9375,330.9375,25.5625,70.9375,-0.44580078125,-0.39288330078125,0.20159912109375,0.77862548828125,174.0,393.0,-200.0,423.0,-836.0,288.0,29,3.8013994691360344,12.240147723091646,
79,1.9296784400939941,0.02698969841003418,37.051173555471145,40.93946346633376,101782.25,590.0,-521.0,-42.0,-0.6875,41.0625,-28.0625,-337.625,301.375,-407.9375,349.75,32.4375,74.5,-0.4757080078125,-0.3880615234375,0.11962890625,0.7802734375,81.0,408.0,-229.0,482.0,-819.0,241.0,76,11.021259522222431,32.66127893509369,
80,1.9536540508270264,0.023975610733032227,41.70905221706228,40.94890800453344,101782.25,857.0,-1363.0,-226.0,-2.5,44.875,-20.0625,-236.6875,257.75,-484.9375,4.8125,39.8125,74.125,-0.49200439453125,-0.39129638671875,-0.032958984375,0.7769775390625,229.0,-639.0,-432.0,628.0,-724.0,205.0,193,29.21913357000019,90.769662932149,
81,1.9786269664764404,0.024972915649414062,40.04338195982586,40.937479056118214,101782.25,1005.0,-1847.0,-226.0,-2.5,44.875,-20.0625,-153.1875,-43.25,-371.25,21.375,51.1875,73.125,-0.47772216796875,-0.425537109375,-0.1429443359375,0.75518798828125,241.0,-1258.0,-403.0,764.0,-588.0,177.0,198,46.09722021300017,137.57654351331175,
82,2.002716541290283,0.024089574813842773,41.51173309316204,40.94438644181275,101782.25,664.0,-1242.0,-36.0,-16.5,44.0,-11.5,-131.1875,-238.0,-190.125,26.0,56.4375,79.625,-0.4835205078125,-0.4654541015625,-0.16680908203125,0.72235107421875,-152.0,-710.0,-133.0,817.0,-532.0,97.0,254,66.88749819170016,195.6136576630019,
83,2.024562120437622,0.021845579147338867,45.775852095997905,40.99651927798541,101782.25,498.0,-771.0,236.0,-16.5,44.0,-11.5,-68.8125,-294.0,-99.6875,26.875,59.1875,90.0625,-0.49359130859375,-0.50677490234375,-0.16448974609375,0.6873779296875,-392.0,-217.0,189.0,842.0,-501.0,0.0,264,86.59874837253015,252.1485068823526,
84,2.0474867820739746,0.02292466163635254,43.6211454660801,41.02590587418265,101782.25,808.0,-1196.0,259.0,-26.75,39.5,-3.0,-26.1875,-162.125,-6.6875,26.0,59.75,102.5625,-0.50433349609375,-0.54827880859375,-0.15020751953125,0.6500244140625,-38.0,-714.0,366.0,847.0,-481.0,-107.0,404,118.33887353527714,342.7398756786265,
85,2.0705196857452393,0.02303290367126465,43.41614996842879,41.05249546053269,101780.5,820.0,-1126.0,264.0,-26.75,39.5,-3.0,-42.625,-13.5625,117.3125,24.4375,57.875,104.3125,-0.51763916015625,-0.5457763671875,-0.1395263671875,0.64398193359375,-10.0,-621.0,393.0,831.0,-504.0,-129.0,292,135.70498618174943,375.6382657065659,
86,2.0954887866973877,0.024969100952148438,40.04949965625239,41.0405441183682,101780.5,736.0,-692.0,188.0,-28.0,40.25,2.5625,-72.1875,276.8125,208.3125,23.6875,53.375,97.0625,-0.54681396484375,-0.48785400390625,-0.13983154296875,0.66595458984375,-50.0,-112.0,260.0,787.0,-580.0,-72.0,348,156.9344875635745,413.60567711354565,
87,2.11934494972229,0.023856163024902344,41.917889266440135,41.050419853266504,101780.5,813.0,-739.0,-37.0,-28.0,40.25,2.5625,-117.125,396.9375,194.25,26.125,49.875,89.75,-0.56500244140625,-0.42352294921875,-0.1602783203125,0.689697265625,62.0,-107.0,-40.0,750.0,-631.0,2.0,456,186.84103880721705,480.80678321423204,
88,2.140723705291748,0.021378755569458008,46.775407331407735,41.1075935593505,101780.5,789.0,-792.0,-159.0,-28.0,40.25,2.5625,-118.0625,404.375,148.25,29.75,46.3125,83.4375,-0.5780029296875,-0.35589599609375,-0.18878173828125,0.70965576171875,80.0,-120.0,-236.0,709.0,-672.0,76.0,,186.84103880721705,480.80678321423204,
89,2.1659836769104004,0.025259971618652344,39.58832634877487,41.08987567577206,101780.5,652.0,-729.0,-288.0,-21.0625,45.75,0.5,-73.25,200.9375,6.3125,34.9375,43.3125,78.3125,-0.58465576171875,-0.2908935546875,-0.2276611328125,0.72235107421875,-20.0,-30.0,-432.0,673.0,-698.0,144.0,545,222.65693492649535,555.7735512805982,
90,2.189213752746582,0.02323007583618164,43.0476425067225,41.1106498335698,101780.5,598.0,-629.0,-251.0,-21.0625,45.75,0.5,13.375,27.1875,-117.6875,37.5625,44.625,76.8125,-0.57861328125,-0.2904052734375,-0.24542236328125,0.7215576171875,-90.0,49.0,-410.0,689.0,-679.0,158.0,494,249.79124143384584,604.757101273851,
91,2.2131385803222656,0.023924827575683594,41.797584406266196,41.11807584446387,101780.5,692.0,-719.0,-125.0,-16.0,46.875,0.5,42.25,-193.25,-292.0625,40.125,49.125,77.0625,-0.56707763671875,-0.324462890625,-0.25994873046875,0.7110595703125,-97.0,-27.0,-292.0,741.0,-625.0,143.0,522,277.0121172904613,647.3978816702933,
92,2.2363533973693848,0.02321481704711914,43.07593714696518,41.13839973065943,101780.5,778.0,-907.0,17.0,-16.0,46.875,0.5,8.75,-258.625,-323.25,45.1875,59.1875,83.25,-0.549072265625,-0.410400390625,-0.27984619140625,0.672119140625,-63.0,-409.0,-41.0,842.0,-498.0,58.0,475,296.81090556141515,663.8341598683244,
93,2.2613232135772705,0.024969816207885742,40.04835244578969,41.12636329102193,101780.5,765.0,-959.0,111.0,-21.6875,44.6875,-0.25,-50.375,-238.3125,-283.1875,49.3125,65.125,92.625,-0.54290771484375,-0.463623046875,-0.2923583984375,0.63629150390625,-124.0,-547.0,130.0,889.0,-411.0,-18.0,517,318.82981500527364,681.2731107492242,
94,2.2842929363250732,0.022969722747802734,43.535571194287016,41.15058909704698,101780.5,638.0,-860.0,218.0,-21.6875,44.6875,-0.25,-139.0,-95.3125,-130.9375,56.375,69.75,108.6875,-0.54901123046875,-0.504150390625,-0.31500244140625,0.5875244140625,-281.0,-539.0,327.0,920.0,-321.0,-108.0,503,337.2468335047463,690.9148954949097,
95,2.3078579902648926,0.023565053939819336,42.43571869403778,41.16371128584738,101780.5,605.0,-746.0,191.0,-32.25,37.0,6.75,-151.375,25.4375,-3.5625,60.1875,70.375,112.4375,-0.56072998046875,-0.49969482421875,-0.3311767578125,0.5711669921875,-318.0,-443.0,317.0,923.0,-303.0,-125.0,517,355.2221501542717,696.6653423173581,
96,2.3318324089050293,0.02397441864013672,41.711126138669,41.16933945740947,101780.5,659.0,-690.0,78.0,-32.25,37.0,6.75,-140.9375,114.3125,126.75,61.875,69.3125,108.625,-0.5762939453125,-0.4736328125,-0.3424072265625,0.57122802734375,-299.0,-370.0,250.0,917.0,-327.0,-110.0,554,375.09993513884456,707.2620986798782,
97,2.3548688888549805,0.023036479949951172,43.40940986524808,41.19125292243543,101780.5,694.0,-698.0,40.0,-34.875,33.75,11.0,-90.5625,151.5625,235.0,60.9375,66.125,101.3125,-0.5936279296875,-0.43280029296875,-0.34405517578125,0.58477783203125,-202.0,-309.0,118.0,896.0,-388.0,-77.0,,375.09993513884456,707.2620986798782,
98,2.374807357788086,0.01993846893310547,50.15430238676041,41.26650512455796,101780.5,790.0,-698.0,-45.0,-34.875,33.75,11.0,-37.9375,102.4375,335.625,55.25,57.6875,93.8125,-0.62237548828125,-0.36138916015625,-0.322265625,0.614990234375,-38.0,-176.0,-10.0,829.0,-522.0,-35.0,587,396.2899416249601,735.7027302160521,
99,2.3977859020233154,0.022978544235229492,43.51885784247606,41.28808994850673,101780.5,824.0,-686.0,-53.0,-30.0625,38.375,10.25,-9.0,37.75,339.8125,49.5,51.125,92.125,-0.64068603515625,-0.318359375,-0.292724609375,0.6343994140625,60.0,-72.0,-30.0,763.0,-614.0,-23.0,573,413.9609474624641,738.3682710768402,
100,2.421679735183716,0.02389383316040039,41.85180306930891,41.293651900842164,101780.5,899.0,-739.0,-42.0,-30.0625,38.375,10.25,21.5625,-37.3125,274.8125,40.25,42.4375,92.0,-0.66253662109375,-0.27227783203125,-0.2401123046875,0.6551513671875,237.0,-15.0,-16.0,661.0,-723.0,-25.0,601,432.66485271621775,741.9221821352618,
101,2.445586681365967,0.023906946182250977,41.828847247015645,41.298883727804366,101780.5,884.0,-691.0,4.0,-18.25,45.5625,9.875,34.5,-48.0625,206.625,34.75,38.0,92.0,-0.670654296875,-0.25341796875,-0.20819091796875,0.665283203125,279.0,80.0,32.0,604.0,-771.0,-27.0,550,444.398367444596,721.8323591839562,
102,2.4703633785247803,0.024776697158813477,40.36050461408185,41.28947218320207,101786.5,807.0,-543.0,42.0,-18.25,45.5625,9.875,27.6875,-25.125,119.9375,31.0625,35.25,91.8125,-0.67431640625,-0.241943359375,-0.18701171875,0.672119140625,241.0,256.0,68.0,566.0,-800.0,-26.0,559,455.8585307001364,701.0888082055093,
103,2.4945008754730225,0.024137496948242188,41.429316475701306,41.29082535618213,101786.5,737.0,-440.0,45.0,-8.875,47.75,8.5625,-22.9375,44.125,-54.0,31.4375,35.0625,91.5,-0.67431640625,-0.23712158203125,-0.18975830078125,0.673095703125,173.0,361.0,66.0,563.0,-801.0,-21.0,545,464.77267763012276,674.5462646909331,
104,2.518495798110962,0.023994922637939453,41.67548339659387,41.29449017862443,101786.5,786.0,-608.0,-25.0,-8.875,47.75,8.5625,-32.25,67.8125,-151.25,35.375,37.625,91.3125,-0.67071533203125,-0.243408203125,-0.21295166015625,0.66748046875,187.0,167.0,-7.0,598.0,-776.0,-17.0,573,475.5954098671105,656.6659713275276,
105,2.541344404220581,0.02284860610961914,43.7663459732454,41.31671402963701,101786.5,813.0,-806.0,-84.0,-9.6875,48.6875,9.6875,8.875,26.5,-222.375,42.4375,43.5625,90.375,-0.65570068359375,-0.26959228515625,-0.25555419921875,0.65728759765625,109.0,-87.0,-70.0,676.0,-710.0,-5.0,611,489.13586888039947,651.5420067262977,
106,2.5665462017059326,0.025201797485351562,39.67970937712859,41.30063971945796,101786.5,652.0,-628.0,-25.0,-9.6875,48.6875,9.6875,34.8125,-20.125,-240.375,46.5,48.125,90.0625,-0.64166259765625,-0.29791259765625,-0.279296875,0.64923095703125,-78.0,25.0,-24.0,730.0,-653.0,0.0,684,508.6222819923595,661.2758629150131,
107,2.589529037475586,0.02298283576965332,43.510731661773704,41.32025493883221,101786.5,593.0,-570.0,19.0,-9.6875,48.6875,9.6875,47.75,-45.4375,-246.4375,50.0625,52.875,90.125,-0.6256103515625,-0.33087158203125,-0.29925537109375,0.6400146484375,-189.0,20.0,20.0,782.0,-591.0,-1.0,639,521.6600537931236,653.756433105051,
108,2.612844228744507,0.0233151912689209,42.89049094497449,41.33426662480177,101786.5,564.0,-695.0,43.0,-18.25,45.6875,10.0625,48.75,-41.5,-212.1875,54.75,59.5,90.9375,-0.60137939453125,-0.3775634765625,-0.3240966796875,0.6251220703125,-280.0,-198.0,51.0,845.0,-497.0,-8.0,536,523.0940484138112,606.3762971201464,
109,2.6380057334899902,0.0251615047454834,39.74325105415265,41.319091394011785,101786.5,593.0,-835.0,48.0,-18.25,45.6875,10.0625,22.375,-28.875,-162.375,57.375,62.875,91.5625,-0.5882568359375,-0.40032958984375,-0.33740234375,0.6163330078125,-280.0,-389.0,60.0,873.0,-446.0,-12.0,517,522.4846435724301,555.9286149821648,
110,2.6632115840911865,0.02520585060119629,39.673328856140216,41.30351514580738,101786.5,533.0,-830.0,49.0,-27.75,40.875,7.375,-13.125,-5.0,-44.5,59.75,65.3125,92.625,-0.58111572265625,-0.41473388671875,-0.34881591796875,0.607177734375,-358.0,-421.0,68.0,891.0,-408.0,-19.0,578,528.0361792151871,529.0741577205263,
111,2.687549352645874,0.0243377685546875,41.0884012539185,41.30156712870082,101786.5,535.0,-849.0,37.0,-27.75,40.875,7.375,-37.625,5.1875,17.5625,60.25,65.25,93.125,-0.5845947265625,-0.41217041015625,-0.3509521484375,0.60430908203125,-355.0,-440.0,60.0,890.0,-409.0,-22.0,662,541.4325612936684,530.7830988781997,
112,2.7116191387176514,0.024069786071777344,41.545861563453386,41.303735617150785,101786.5,550.0,-873.0,27.0,-31.875,36.0625,8.5625,-39.3125,9.0,40.625,60.0,64.3125,93.4375,-0.591552734375,-0.4039306640625,-0.34918212890625,0.6041259765625,-321.0,-492.0,35.0,883.0,-424.0,-25.0,,541.4325612936684,530.7830988781997,
113,2.739626169204712,0.028007030487060547,35.70532050736358,41.24650336246527,101786.5,582.0,-950.0,-3.0,-31.875,36.0625,8.5625,-33.625,-27.6875,84.5625,58.375,61.875,94.8125,-0.606201171875,-0.39044189453125,-0.337890625,0.6048583984375,-282.0,-490.0,35.0,864.0,-460.0,-39.0,512,538.4893051643016,479.91325869319945,
114,2.763244152069092,0.023617982864379883,42.34061840684023,41.25585497562271,101786.5,620.0,-977.0,-14.0,-31.1875,38.0,9.6875,2.6875,-79.375,76.5,55.5625,59.375,98.0625,-0.6217041015625,-0.38653564453125,-0.31756591796875,0.6026611328125,-223.0,-482.0,56.0,844.0,-494.0,-70.0,517,536.3403746478715,434.2412342394249,
115,2.7871005535125732,0.023856401443481445,41.91747034309071,41.2615181232216,101786.5,673.0,-1013.0,2.0,-31.1875,38.0,9.6875,61.9375,-100.5,73.875,52.1875,57.625,99.8125,-0.62677001953125,-0.390869140625,-0.2967529296875,0.605224609375,-155.0,-497.0,91.0,828.0,-516.0,-89.0,451,527.8063371830843,370.8839145133077,
116,2.810312271118164,0.02321171760559082,43.081689041363234,41.276551788263035,101786.5,675.0,-953.0,18.0,-28.5625,38.75,11.5625,136.625,-100.1875,68.0,45.3125,55.125,100.5,-0.62371826171875,-0.399169921875,-0.2713623046875,0.6175537109375,-137.0,-413.0,119.0,812.0,-539.0,-101.0,442,519.225703464776,311.63974586184327,
117,2.832972288131714,0.022660017013549805,44.13059352082742,41.29938033285848,101786.5,584.0,-752.0,54.0,-28.5625,38.75,11.5625,166.875,-68.125,46.25,40.5,53.8125,99.1875,-0.6136474609375,-0.4130859375,-0.2330322265625,0.63128662109375,-209.0,-180.0,143.0,791.0,-570.0,-92.0,447,512.0031331182984,261.20966090201705,
118,2.8589212894439697,0.02594900131225586,38.53712857641632,41.27430875263788,101798.25,598.0,-799.0,37.0,-25.0,40.6875,12.0,175.3125,-46.6875,27.4375,38.4375,53.5,98.0,-0.6060791015625,-0.41754150390625,-0.2230224609375,0.63922119140625,-189.0,-222.0,119.0,788.0,-577.0,-81.0,348,495.6028198064686,189.75120940653593,
119,2.8820292949676514,0.02310800552368164,43.27504591320856,41.29035059004689,101798.25,686.0,-955.0,-77.0,-25.0,40.6875,12.0,163.125,-19.875,-40.75,32.9375,54.125,92.3125,-0.56597900390625,-0.4376220703125,-0.19830322265625,0.66998291015625,-198.0,-159.0,-62.0,795.0,-573.0,-23.0,287,474.7425378258217,102.3527398160155,
120,2.9056661128997803,0.023636817932128906,42.306879160782735,41.2986197785275,101798.25,573.0,-625.0,-99.0,-23.875,44.0,6.25,171.6875,-23.125,-49.375,31.9375,54.625,90.9375,-0.55474853515625,-0.444091796875,-0.19366455078125,0.6763916015625,-225.0,-58.0,-89.0,799.0,-567.0,-9.0,254,452.66828404323957,19.453097643201886,
121,2.9300222396850586,0.02435612678527832,41.05743120882563,41.29661487245435,101798.25,607.0,-655.0,-163.0,-23.875,44.0,6.25,345.5,-44.625,29.0625,23.4375,55.1875,82.875,-0.49298095703125,-0.4710693359375,-0.14874267578125,0.71624755859375,-186.0,-188.0,-230.0,805.0,-555.0,68.0,179,425.30145563891557,-71.99208413739568,
122,2.953418731689453,0.02339649200439453,42.741450291444174,41.308060618350574,101798.25,634.0,-822.0,-158.0,-25.0,44.375,-0.5,375.5,-51.5625,63.875,19.8125,54.625,80.125,-0.47320556640625,-0.47601318359375,-0.127685546875,0.730224609375,-165.0,-263.0,-255.0,800.0,-558.0,97.0,160,398.771310075024,-156.94766923391194,
123,2.9784295558929443,0.02501082420349121,39.98268876962527,41.2969310476521,101798.25,666.0,-918.0,-138.0,-25.0,44.375,-0.5,307.6875,-58.6875,127.5625,8.75,52.0,73.375,-0.42266845703125,-0.4832763671875,-0.05853271484375,0.764404296875,-104.0,-321.0,-294.0,773.0,-578.0,172.0,57,364.5941790675216,-253.71134306413322,
124,3.0019474029541016,0.023517847061157227,42.52089901764986,41.306519853737726,101798.25,715.0,-926.0,-118.0,-24.5,43.1875,-11.5,205.25,-38.9375,174.8125,2.25,49.3125,71.0625,-0.40594482421875,-0.479248046875,-0.0155029296875,0.77801513671875,-27.0,-321.0,-325.0,743.0,-604.0,206.0,29,331.03476116076945,-347.5725652113322,
125,3.0247843265533447,0.022836923599243164,43.78873518818187,41.325260416974565,101798.25,784.0,-992.0,-144.0,-24.5,43.1875,-11.5,87.3125,-6.375,283.9375,352.8125,42.75,70.375,-0.4105224609375,-0.45660400390625,0.04937744140625,0.7877197265625,142.0,-320.0,-392.0,665.0,-678.0,241.0,0,297.9312850446925,-435.7315079508413,
126,3.0487594604492188,0.023975133895874023,41.70988176095626,41.32828504005185,101798.25,745.0,-845.0,-121.0,-19.0,44.75,-18.1875,18.4375,-13.875,345.375,345.875,36.6875,71.625,-0.430908203125,-0.43408203125,0.09698486328125,0.78515625,159.0,-99.0,-368.0,586.0,-746.0,246.0,0,268.1381565402233,-500.286416691605,
127,3.073967695236206,0.025208234786987305,39.6695765669482,41.3146827134243,101798.25,704.0,-758.0,-117.0,-19.0,44.75,-18.1875,-78.5625,-53.3125,300.25,336.25,27.9375,75.3125,-0.47308349609375,-0.40545654296875,0.1605224609375,0.7655029296875,297.0,-23.0,-349.0,459.0,-837.0,219.0,0,241.32434088620096,-545.3589204074185,
128,3.09797739982605,0.02400970458984375,41.64982523037814,41.3172801090115,101798.25,903.0,-1080.0,-173.0,-6.1875,47.6875,-19.5625,-86.25,-105.625,245.875,330.625,23.5,78.4375,-0.49920654296875,-0.398681640625,0.19476318359375,0.7442626953125,512.0,-199.0,-353.0,391.0,-880.0,180.0,0,217.19190679758086,-582.1391397487968,
129,3.1214520931243896,0.023474693298339844,42.59906561040016,41.326919700016475,101798.25,867.0,-1018.0,-114.0,-6.1875,47.6875,-19.5625,-8.0625,-182.0625,182.0625,321.125,18.25,81.4375,-0.517333984375,-0.40252685546875,0.251220703125,0.71221923828125,509.0,40.0,-200.0,307.0,-920.0,138.0,0,195.47271611782278,-609.5853868706374,
130,3.1456549167633057,0.024202823638916016,41.317493153653686,41.32684717170515,101798.25,767.0,-718.0,-17.0,-6.1875,47.6875,-19.5625,-6.75,-194.5,133.8125,318.25,17.25,82.1875,-0.51800537109375,-0.408447265625,0.26751708984375,0.70233154296875,476.0,209.0,-144.0,290.0,-927.0,127.0,0,175.92544450604052,-625.4300968003803,
131,3.169320821762085,0.023665904998779297,42.254881021941934,41.33377697217992,101798.25,696.0,-505.0,50.0,3.375,50.0625,-16.875,119.9375,-98.0625,-1.9375,311.375,16.4375,82.375,-0.50439453125,-0.426513671875,0.30242919921875,0.68719482421875,420.0,427.0,-74.0,275.0,-932.0,124.0,0,158.33290005543648,-634.8653588670297,
132,3.191575050354004,0.022254228591918945,44.935280316259735,41.35888955058688,101798.25,800.0,-813.0,4.0,3.375,50.0625,-16.875,152.125,-68.75,-18.8125,310.6875,16.75,80.1875,-0.4833984375,-0.429931640625,0.31805419921875,0.69305419921875,517.0,111.0,-155.0,282.0,-925.0,159.0,0,142.49961004989285,-640.9939961358864,
133,3.2169315814971924,0.025356531143188477,39.437571107538105,41.34374531462694,101798.25,664.0,-700.0,11.0,6.5,48.6875,-18.375,179.8125,-11.125,-51.625,309.875,18.0,75.1875,-0.445068359375,-0.425048828125,0.33367919921875,0.714111328125,360.0,200.0,-225.0,303.0,-901.0,237.0,0,128.24964904490358,-634.6731844781283,
134,3.240583658218384,0.023652076721191406,42.27958550058465,41.350575739702045,101791.75,636.0,-685.0,-4.0,6.5,48.6875,-18.375,133.25,20.25,-105.6875,311.125,19.625,72.0625,-0.421142578125,-0.42156982421875,0.3321533203125,0.73114013671875,306.0,192.0,-289.0,330.0,-878.0,284.0,0,115.42468414041322,-627.2780657375899,
135,3.2631914615631104,0.022607803344726562,44.23251497511178,41.37054217938327,101791.75,642.0,-737.0,-69.0,4.375,45.75,-24.6875,65.6875,23.9375,-145.3125,315.0625,23.3125,69.25,-0.3948974609375,-0.4263916015625,0.31072998046875,0.75213623046875,228.0,126.0,-398.0,388.0,-842.0,318.0,0,103.8822157263719,-617.9400130364899,
136,3.2852790355682373,0.022087574005126953,45.2743248202759,41.396788074190724,101791.75,536.0,-641.0,-56.0,4.375,45.75,-24.6875,5.1875,-15.5625,-132.4375,317.5625,25.8125,68.5625,-0.3826904296875,-0.43536376953125,0.2947998046875,0.75970458984375,108.0,180.0,-377.0,427.0,-821.0,321.0,0,93.4939941537347,-606.1303894163366,
137,3.308702230453491,0.023423194885253906,42.692724237612474,41.40596235558579,101791.75,539.0,-691.0,-40.0,0.25,43.25,-27.6875,-32.1875,-55.625,-104.9375,319.875,29.1875,69.6875,-0.37274169921875,-0.4578857421875,0.27679443359375,0.7581787109375,82.0,39.0,-340.0,478.0,-802.0,296.0,0,84.14459473836123,-589.5720647452565,
138,3.333683729171753,0.02498149871826172,40.029623974040845,41.39564854110675,101791.75,665.0,-944.0,-37.0,0.25,43.25,-27.6875,-47.625,-86.875,-59.875,319.9375,30.5625,71.5625,-0.371826171875,-0.47540283203125,0.27294921875,0.7491455078125,207.0,-198.0,-291.0,499.0,-800.0,266.0,0,75.73013526452512,-569.3525114602332,
139,3.3630130290985107,0.029329299926757812,34.09559732067373,41.331983788733744,101791.75,717.0,-957.0,32.0,-5.5,41.6875,-28.75,-72.0625,-126.5,69.0625,316.4375,29.6875,76.0,-0.38494873046875,-0.496826171875,0.28826904296875,0.72247314453125,211.0,-28.0,-123.0,486.0,-826.0,205.0,0,68.1571217380726,-544.4608241195699,
140,3.3869738578796387,0.02396082878112793,41.7347834306809,41.334833357008776,101791.75,704.0,-816.0,132.0,-5.5,41.6875,-28.75,-84.625,-68.9375,161.625,312.9375,27.1875,78.75,-0.4031982421875,-0.500732421875,0.3055419921875,0.702392578125,256.0,39.0,-37.0,448.0,-855.0,170.0,0,61.34140956426535,-523.6601399099804,
141,3.4123737812042236,0.02539992332458496,39.370197587647255,41.3202096372459,101791.75,704.0,-771.0,147.0,-8.5,44.6875,-25.0625,-117.375,14.125,157.5625,310.0625,22.75,82.375,-0.4443359375,-0.49139404296875,0.31585693359375,0.67919921875,339.0,129.0,2.0,379.0,-896.0,119.0,0,55.20726860783881,-501.08751603598137,
142,3.4364988803863525,0.024125099182128906,41.45060679131913,41.32112505854664,101791.75,758.0,-813.0,37.0,-8.5,44.6875,-25.0625,-167.375,121.5,81.0625,311.0625,20.6875,84.8125,-0.4764404296875,-0.4803466796875,0.30487060546875,0.6702880859375,411.0,99.0,-45.0,346.0,-913.0,82.0,0,49.68654174705493,-479.307513017793,
143,3.461477756500244,0.0249788761138916,40.03382679991219,41.31183559722809,101791.75,780.0,-848.0,-30.0,-3.375,47.6875,-20.1875,-130.125,148.3125,29.9375,315.0,19.5,86.9375,-0.51214599609375,-0.46142578125,0.27703857421875,0.6693115234375,445.0,58.0,-107.0,327.0,-923.0,48.0,0,44.71788757234944,-456.8760512290752,
144,3.4845428466796875,0.02306509017944336,43.355564284385274,41.325363565901654,101791.75,746.0,-932.0,-81.0,-3.375,47.6875,-20.1875,5.25,110.4375,-39.6875,317.6875,19.8125,86.5,-0.517822265625,-0.450927734375,0.26226806640625,0.67803955078125,413.0,-11.0,-137.0,333.0,-920.0,55.0,0,40.2460988151145,-435.8361211251884,
145,3.5095937252044678,0.025050878524780273,39.918759695824725,41.31532346854545,101791.75,754.0,-1012.0,-74.0,2.0625,50.1875,-14.75,54.4375,67.75,-135.6875,322.875,23.625,84.25,-0.498291015625,-0.4541015625,0.235107421875,0.7001953125,348.0,-82.0,-152.0,393.0,-893.0,67.0,0,36.22148893360305,-413.82182621353314,
146,3.5315299034118652,0.02193617820739746,45.58679230928082,41.34185579426842,101791.75,703.0,-895.0,-37.0,2.0625,50.1875,-14.75,27.25,17.8125,-245.6875,325.25,26.0,83.8125,-0.47509765625,-0.4735107421875,0.20440673828125,0.71295166015625,191.0,39.0,-110.0,471.0,-854.0,98.0,0,32.599340040242744,-393.92585206164307,
147,3.554905652999878,0.023375749588012695,42.77937681676781,41.35130840278451,101791.75,629.0,-849.0,18.0,-0.5625,49.875,-14.875,20.4375,4.25,-311.0,330.9375,31.6875,83.0,-0.46136474609375,-0.4852294921875,0.186279296875,0.71905517578125,119.0,56.0,-91.0,515.0,-827.0,101.0,0,29.33940603621847,-373.5684195091876,
148,3.577558994293213,0.02265334129333496,44.14359837920328,41.368989368472754,101791.75,789.0,-1215.0,-36.0,-0.5625,49.875,-14.875,2.1875,26.5,-340.3125,340.75,41.1875,81.5,-0.4058837890625,-0.52935791015625,0.12432861328125,0.7379150390625,143.0,-486.0,-145.0,646.0,-729.0,108.0,85,34.90546543259663,-324.026474704572,
149,3.602660655975342,0.025101661682128906,39.83800007598496,41.35832214806851,101791.75,787.0,-1426.0,-9.0,-11.875,47.25,-16.0625,-73.5625,10.875,-280.4375,347.4375,46.9375,81.3125,-0.39794921875,-0.538818359375,0.0810546875,0.73809814453125,70.0,-764.0,-109.0,716.0,-661.0,100.0,81,39.51491888933697,-283.4138441554166,
150,3.6277170181274414,0.02505636215209961,39.91002340761604,41.348318860170394,101789.5,618.0,-1173.0,33.0,-11.875,47.25,-16.0625,-227.0,0.9375,-178.75,357.375,53.125,84.9375,-0.399169921875,-0.5606689453125,0.0166015625,0.72528076171875,-166.0,-587.0,-17.0,784.0,-586.0,51.0,90,44.56342700040327,-244.6218504720876,
151,3.6516518592834473,0.02393484115600586,41.78009761928479,41.3511489645758,101789.5,546.0,-1032.0,62.0,-23.375,42.875,-12.25,-256.25,10.25,-81.1875,3.375,55.125,89.6875,-0.42034912109375,-0.5672607421875,-0.02117919921875,0.7078857421875,-258.0,-472.0,59.0,805.0,-560.0,3.0,100,50.10708430036295,-206.5229389815065,
152,3.6734886169433594,0.02183675765991211,45.79434436073807,41.37756118228463,101789.5,505.0,-964.0,79.0,-23.375,42.875,-12.25,-213.625,26.0625,19.875,7.375,55.25,93.375,-0.46014404296875,-0.55841064453125,-0.05120849609375,0.68841552734375,-287.0,-433.0,138.0,800.0,-565.0,-46.0,,50.10708430036295,-206.5229389815065,
153,3.6945607662200928,0.0210721492767334,47.45600398266635,41.41222994595225,101789.5,600.0,-1181.0,101.0,-28.25,43.25,-5.0625,-133.25,53.75,120.125,9.3125,52.625,95.8125,-0.4864501953125,-0.54254150390625,-0.05572509765625,0.68255615234375,-179.0,-589.0,161.0,779.0,-591.0,-60.0,160,61.09637587032665,-148.28047470211567,
154,3.716791868209839,0.022231101989746094,44.982025653125135,41.43358182554698,101789.5,619.0,-1128.0,94.0,-28.25,43.25,-5.0625,-147.3125,45.5625,151.0,9.5,50.0,96.9375,-0.5,-0.533203125,-0.056396484375,0.67657470703125,-131.0,-503.0,171.0,751.0,-625.0,-76.0,142,69.18673828329399,-107.30436555769234,
155,3.7405683994293213,0.023776531219482422,42.058279686340576,41.4375526520642,101789.5,480.0,-776.0,161.0,-28.25,43.25,-5.0625,-127.0625,39.3125,193.9375,8.625,46.5625,98.3125,-0.54638671875,-0.5013427734375,-0.05072021484375,0.66900634765625,-232.0,-109.0,259.0,712.0,-667.0,-97.0,203,82.5680644549646,-53.69637161689524,
156,3.76424241065979,0.02367401123046875,42.24041250402836,41.44260198499187,101789.5,394.0,-501.0,178.0,-23.0625,46.0,-0.1875,-26.3125,75.25,201.375,5.5,42.8125,97.9375,-0.57025146484375,-0.47479248046875,-0.03912353515625,0.669189453125,-233.0,117.0,275.0,666.0,-712.0,-99.0,198,94.11125800946814,-10.393521299057937,
157,3.789738178253174,0.02549576759338379,39.22219624638806,41.42766402727244,101789.5,411.0,-560.0,165.0,-23.0625,46.0,-0.1875,31.5,109.0,168.0,3.4375,37.75,95.125,-0.59075927734375,-0.43170166015625,-0.02056884765625,0.681396484375,-189.0,211.0,234.0,600.0,-772.0,-69.0,203,105.00013220852134,24.60480526386637,
158,3.813828706741333,0.02409052848815918,41.51008976376394,41.42818467979928,101789.5,542.0,-920.0,36.0,-16.0625,49.6875,2.375,22.75,123.25,21.6875,3.5625,35.6875,91.125,-0.591552734375,-0.4061279296875,-0.01776123046875,0.700927734375,-85.0,-46.0,116.0,574.0,-793.0,-31.0,179,112.40011898766922,47.210350079004655,
159,3.8358523845672607,0.022023677825927734,45.40567692207764,41.451021587718756,101789.5,475.0,-737.0,28.0,-16.0625,49.6875,2.375,11.4375,68.8125,-42.6875,5.4375,36.3125,89.8125,-0.58807373046875,-0.39117431640625,-0.03369140625,0.70709228515625,-105.0,52.0,26.0,581.0,-789.0,2.0,221,123.26010708890229,82.88193096085999,
160,3.858445882797241,0.02259349822998047,44.260520872905325,41.4674728790042,101789.5,340.0,-511.0,77.0,-9.375,50.6875,-0.25,91.6875,19.6875,-48.0625,6.0,37.25,88.0,-0.5762939453125,-0.392578125,-0.0377197265625,0.71575927734375,-253.0,268.0,50.0,593.0,-780.0,26.0,193,130.23409638001206,100.94516837091778,
161,3.8845062255859375,0.02606034278869629,38.37248067334523,41.446709221251105,101789.5,449.0,-746.0,82.0,-9.375,50.6875,-0.25,159.875,-15.0625,-101.5625,5.75,39.625,83.875,-0.54180908203125,-0.40679931640625,-0.0372314453125,0.73455810546875,-176.0,4.0,1.0,625.0,-750.0,80.0,226,139.81068674201086,122.2677571878318,
162,3.909545421600342,0.025039196014404297,39.937384547999464,41.43704255357815,101789.5,486.0,-1009.0,-55.0,-11.0,50.6875,-3.0,156.5,-21.375,-118.125,5.9375,41.9375,80.875,-0.5137939453125,-0.42083740234375,-0.03900146484375,0.74664306640625,-169.0,-289.0,-171.0,655.0,-720.0,115.0,250,150.82961806780978,147.69172042611956,
163,3.932502031326294,0.02295660972595215,43.56043910392888,41.44943822063986,101789.5,672.0,-393.0,-145.0,-11.0,50.6875,-3.0,-63.375,70.9375,1.75,8.0625,42.875,81.125,-0.5159912109375,-0.4212646484375,-0.05255126953125,0.7440185546875,4.0,315.0,-255.0,667.0,-709.0,110.0,264,162.1466562610288,175.31439503623434,
164,3.9562807083129883,0.023778676986694336,42.05448438361658,41.4530747667629,101789.5,480.0,-428.0,-151.0,-15.5,47.75,-8.1875,-142.125,75.3125,-39.6875,10.875,43.125,81.5625,-0.5264892578125,-0.411865234375,-0.07073974609375,0.74041748046875,-190.0,279.0,-255.0,671.0,-707.0,104.0,268,172.73199063492592,196.90210576312893,
165,3.980578660964966,0.02429795265197754,41.15573086848587,41.451259742220735,101789.5,132.0,-674.0,-780.0,-15.5,47.75,-8.1875,-127.25,8.125,-62.5,14.375,44.25,83.6875,-0.54022216796875,-0.41131591796875,-0.0919189453125,0.7283935546875,-552.0,22.0,-856.0,684.0,-697.0,76.0,282,183.6587915714333,217.12597558979203,
166,4.003793478012085,0.02321481704711914,43.07593714696518,41.46067995555563,101786.0,768.0,-468.0,164.0,-16.5,46.25,-4.0625,12.875,-159.4375,-6.8125,11.8125,45.75,89.625,-0.54156494140625,-0.4521484375,-0.07305908203125,0.7049560546875,65.0,215.0,159.0,702.0,-683.0,4.0,245,189.79291241429,220.89453785291136,
167,4.026765584945679,0.02297210693359375,43.53105280637662,41.47249112894483,101786.0,417.0,-613.0,429.0,-16.5,46.25,-4.0625,-40.875,-161.6875,-57.5625,10.25,46.25,93.5625,-0.54345703125,-0.475830078125,-0.06195068359375,0.68878173828125,-291.0,62.0,471.0,708.0,-676.0,-42.0,301,200.91362117286099,241.95066764177358,
168,4.049728631973267,0.02296304702758789,43.54822767198954,41.484261111624285,101786.0,694.0,-772.0,333.0,-18.0,45.875,-1.5,-86.75,-49.375,-70.8125,11.8125,47.625,96.875,-0.54693603515625,-0.4913330078125,-0.0699462890625,0.6741943359375,-30.0,-116.0,412.0,724.0,-655.0,-79.0,315,212.3222590555749,262.3406910259285,
169,4.071431875228882,0.021703243255615234,46.07606283642755,41.50873824715522,101786.0,485.0,-114.0,-665.0,-18.0,45.875,-1.5,-90.8125,72.0625,-32.25,16.25,48.75,97.6875,-0.5577392578125,-0.4827880859375,-0.09552001953125,0.66839599609375,-252.0,526.0,-579.0,737.0,-640.0,-86.0,339,224.9900331500174,288.0479281577104,
170,4.095123529434204,0.023691654205322266,42.20895642548053,41.512789242645326,101786.0,720.0,-341.0,-620.0,-19.875,45.1875,4.1875,-30.75,-193.0,-120.4375,17.3125,50.25,101.75,-0.556884765625,-0.5050048828125,-0.09954833984375,0.65185546875,-34.0,271.0,-492.0,754.0,-613.0,-127.0,273,229.79102983501568,281.215698695171,
171,4.117148160934448,0.02202463150024414,45.40371084024335,41.5336036780345,101786.0,938.0,-664.0,-114.0,-19.875,45.1875,4.1875,14.3125,-373.625,-208.6875,15.8125,51.875,110.5625,-0.54400634765625,-0.55914306640625,-0.0863037109375,0.61962890625,167.0,-97.0,98.0,771.0,-566.0,-212.0,301,236.9119268515141,284.583654724377,
172,4.141129970550537,0.023981809616088867,41.69827114835913,41.53455728826924,101786.0,759.0,-732.0,317.0,-24.75,43.375,7.6875,-27.75,-170.625,-121.375,15.625,52.6875,123.625,-0.5272216796875,-0.62432861328125,-0.07861328125,0.57098388671875,-20.0,-238.0,646.0,780.0,-494.0,-329.0,339,247.1207341663627,295.8721315876996,
173,4.1638922691345215,0.022762298583984375,43.932294285235464,41.54766473724322,101786.0,556.0,-113.0,-124.0,-24.75,43.375,7.6875,-50.4375,21.5625,-51.875,17.5625,53.5,125.6875,-0.52490234375,-0.630859375,-0.0875244140625,0.56463623046875,-232.0,359.0,215.0,788.0,-473.0,-340.0,282,250.60866074972643,284.46097042913414,
174,4.1868696212768555,0.022977352142333984,43.521115653599516,41.55849494709984,101786.0,797.0,-374.0,-250.0,-24.75,43.375,7.6875,-33.125,59.5,-74.875,20.75,55.25,126.375,-0.5208740234375,-0.6307373046875,-0.10369873046875,0.5657958984375,-8.0,75.0,81.0,805.0,-449.0,-331.0,339,259.44779467475377,292.479210381105,
175,4.211593866348267,0.024724245071411133,40.44612877407161,41.551964779485424,101786.0,771.0,-437.0,-307.0,-28.5,39.75,11.75,35.0,42.75,-40.25,22.375,57.375,125.375,-0.507080078125,-0.631591796875,-0.11395263671875,0.5753173828125,-54.0,-6.0,-1.0,826.0,-430.0,-306.0,315,265.0030152072784,287.05584675276526,
176,4.235517978668213,0.02392411231994629,41.79883402262195,41.553359208108056,101786.0,757.0,-367.0,-263.0,-28.5,39.75,11.75,-4.125,-3.125,-27.125,22.9375,57.9375,125.4375,-0.5032958984375,-0.633056640625,-0.11700439453125,0.57647705078125,-73.0,56.0,38.0,831.0,-423.0,-302.0,357,274.20271368655057,294.8543125960053,
177,4.260544776916504,0.025026798248291016,39.95716871487092,41.5439830509423,101786.0,737.0,-209.0,-418.0,-31.0625,38.25,10.25,-39.6875,-17.375,-48.3125,24.8125,58.3125,128.5625,-0.5030517578125,-0.6407470703125,-0.124755859375,0.56640625,-97.0,192.0,-97.0,834.0,-401.0,-320.0,306,277.38244231789554,281.4302038595374,
178,4.2824296951293945,0.021884918212890625,45.693568066933935,41.56518908003268,101786.0,993.0,-460.0,-538.0,-31.0625,38.25,10.25,-38.6875,-26.375,-105.0625,27.375,59.4375,131.75,-0.4971923828125,-0.6495361328125,-0.13641357421875,0.55877685546875,149.0,-89.0,-206.0,844.0,-371.0,-331.0,301,279.744198086106,267.5491513869503,
179,4.306306838989258,0.02387714385986328,41.88105603706514,41.566940464932934,101786.0,898.0,-369.0,-378.0,-32.0625,38.0,11.375,30.8125,-62.6875,-75.0,28.5625,60.0,135.3125,-0.48828125,-0.662841796875,-0.14007568359375,0.550048828125,48.0,-24.0,-29.0,849.0,-344.0,-348.0,376,289.3697782774954,278.39557634678187,
180,4.330217123031616,0.0239102840423584,41.82300796713432,41.56835440020169,101786.0,856.0,-421.0,65.0,-32.0625,38.0,11.375,128.6875,-51.6875,-26.25,24.0625,59.5625,135.125,-0.467529296875,-0.678955078125,-0.1181640625,0.5535888671875,10.0,-70.0,417.0,845.0,-350.0,-352.0,278,288.23280044974587,252.31978361916538,
181,4.353068590164185,0.02285146713256836,43.760866389833694,41.57986400879873,101786.0,738.0,-369.0,-359.0,-34.0,34.6875,13.25,37.1875,7.5,1.0625,22.375,59.5,134.1875,-0.4609375,-0.6815185546875,-0.11041259765625,0.55755615234375,-106.0,-12.0,-12.0,845.0,-356.0,-347.0,334,292.80952040477126,248.1566993660763,
182,4.378136873245239,0.025068283081054688,39.891044662558016,41.57019418744092,101786.0,825.0,-330.0,-474.0,-34.0,34.6875,13.25,-24.25,4.0625,-43.75,23.75,60.3125,134.625,-0.4583740234375,-0.680908203125,-0.11767578125,0.55889892578125,-26.0,14.0,-133.0,852.0,-345.0,-340.0,315,295.02856836429413,235.385774717725,
183,4.404092788696289,0.025955915451049805,38.52686305308312,41.55225804272215,101791.25,992.0,-489.0,-307.0,-34.375,35.0,10.25,-3.9375,-33.1875,-50.625,24.8125,60.6875,136.6875,-0.4541015625,-0.68695068359375,-0.12200927734375,0.5540771484375,137.0,-160.0,41.0,855.0,-329.0,-349.0,348,300.3257115278647,232.88149747914377,
184,4.425910949707031,0.021818161010742188,45.833377043447854,41.57336243111256,101791.25,830.0,-405.0,-278.0,-34.375,35.0,10.25,8.6875,-31.25,-10.25,24.625,60.4375,137.9375,-0.4515380859375,-0.69219970703125,-0.120361328125,0.550048828125,-22.0,-82.0,80.0,853.0,-323.0,-358.0,372,307.4931403750782,240.53157518372598,
185,4.448829174041748,0.022918224334716797,43.63339783201215,41.583974740915494,101791.25,708.0,-316.0,-441.0,-35.5,34.6875,11.75,33.8125,15.5625,-3.375,23.625,60.4375,136.9375,-0.44842529296875,-0.692138671875,-0.1158447265625,0.55352783203125,-145.0,13.0,-88.0,853.0,-329.0,-353.0,334,310.1438263375704,230.54172397935997,
186,4.473299980163574,0.024470806121826172,40.86502075254779,41.580041764424344,101791.25,792.0,-419.0,-318.0,-35.5,34.6875,11.75,20.5,11.875,-34.75,23.5625,61.0,136.875,-0.4425048828125,-0.693603515625,-0.11627197265625,0.556396484375,-64.0,-94.0,28.0,857.0,-324.0,-346.0,315,310.62944370381337,213.68596716095658,
187,4.498210191726685,0.02491021156311035,40.14417932447048,41.572090238010446,101791.25,709.0,-274.0,-454.0,-35.0625,34.6875,11.375,-27.875,23.75,-47.9375,25.6875,62.3125,138.1875,-0.436279296875,-0.69488525390625,-0.12738037109375,0.55731201171875,-158.0,29.0,-114.0,868.0,-303.0,-339.0,297,309.266499333432,192.21394713097078,
188,4.522205352783203,0.023995161056518555,41.67506930437288,41.57263665266658,101791.25,821.0,-337.0,-457.0,-35.0625,34.6875,11.375,19.6875,26.75,-73.5,27.1875,63.5,139.4375,-0.42755126953125,-0.6973876953125,-0.13519287109375,0.55902099609375,-56.0,-53.0,-125.0,878.0,-283.0,-331.0,353,313.63984940008885,191.4176047301097,
189,4.546845197677612,0.02463984489440918,40.58467105963405,41.5672827604809,101791.25,992.0,-400.0,-244.0,-37.0,33.875,11.375,106.875,18.0625,-38.625,25.875,65.0625,138.9375,-0.42047119140625,-0.70196533203125,-0.13482666015625,0.569091796875,105.0,-128.0,74.0,886.0,-271.0,-319.0,353,317.57586446007997,188.88354647134136,
190,4.570211172103882,0.02336597442626953,42.79727358067018,41.57357129572945,101791.25,969.0,-274.0,-243.0,-37.0,33.875,11.375,-15.8125,31.375,-21.25,26.0625,65.8125,138.625,-0.39910888671875,-0.70318603515625,-0.13287353515625,0.5732421875,74.0,-8.0,57.0,894.0,-265.0,-301.0,343,320.118278014072,182.4775322276662,
191,4.594051837921143,0.023840665817260742,41.94513725686284,41.575499523842886,101791.25,934.0,-262.0,-334.0,-37.0,33.875,11.375,-48.5,28.5,-3.875,26.8125,66.0,138.75,-0.40374755859375,-0.69952392578125,-0.14111328125,0.572509765625,77.0,-55.0,-183.0,897.0,-259.0,-298.0,329,321.0064502126648,170.85969003166917,
192,4.618102312088013,0.024050474166870117,41.579221809169766,41.5755189090191,101791.25,1051.0,-294.0,-276.0,-38.375,31.6875,7.6875,0.125,-7.6875,28.0,27.9375,65.875,138.625,-0.4093017578125,-0.69683837890625,-0.142333984375,0.571533203125,156.0,-30.0,23.0,895.0,-264.0,-300.0,325,321.4058051913983,158.51930436844424,
193,4.641049385070801,0.022947072982788086,43.57854270782466,41.58542260309426,101791.25,1046.0,-278.0,-207.0,-38.375,31.6875,7.6875,4.4375,-7.375,35.75,27.5,65.625,138.125,-0.4112548828125,-0.69598388671875,-0.14007568359375,0.57171630859375,152.0,-9.0,93.0,891.0,-275.0,-301.0,306,319.86522467225853,140.46685970311466,
194,4.664757966995239,0.023708581924438477,42.17881960157279,41.58843853692227,101791.25,788.0,-220.0,-217.0,-39.0625,30.5625,9.1875,-35.9375,18.25,66.375,26.75,64.6875,135.875,-0.42315673828125,-0.68865966796875,-0.13629150390625,0.57281494140625,-98.0,70.0,83.0,886.0,-291.0,-300.0,339,321.7787022050327,135.68616882018898,
195,4.690741777420044,0.025983810424804688,38.485502459076564,41.57125018876055,101791.25,892.0,-414.0,-320.0,-39.0625,30.5625,9.1875,-31.875,50.5,44.3125,27.0625,64.625,133.875,-0.43170166015625,-0.67974853515625,-0.138916015625,0.57635498046875,29.0,-87.0,26.0,886.0,-308.0,-285.0,339,323.5008319845294,130.1334377036674,
196,4.713680028915405,0.022938251495361328,43.5953019436649,41.58109986203256,101791.25,915.0,-361.0,-224.0,-37.0,32.0625,10.25,-40.625,39.1875,58.1875,331.5,64.3125,130.75,-0.0799560546875,-0.796875,0.1473388671875,0.5804443359375,11.0,-47.0,34.0,884.0,-321.0,-277.0,353,326.4507487860765,130.01096378114485,
197,4.737654447555542,0.02397441864013672,41.711126138669,41.581757846785315,101791.25,859.0,-339.0,-192.0,-37.0,32.0625,10.25,-54.9375,33.25,73.0,331.75,63.75,128.875,-0.09521484375,-0.79351806640625,0.1466064453125,0.5828857421875,-19.0,-2.0,80.0,879.0,-336.0,-272.0,334,327.2056739074688,122.12918883574487,
198,4.759466648101807,0.02181220054626465,45.84590160350651,41.60130002780192,101791.25,758.0,-307.0,-191.0,-36.5625,34.0,8.75,-83.8125,29.375,64.625,332.5,62.625,127.1875,-0.11993408203125,-0.790283203125,0.1427001953125,0.583740234375,-112.0,18.0,67.0,871.0,-358.0,-272.0,264,320.8851065167219,89.17708487492423,
199,4.78568959236145,0.026222944259643555,38.134543173284115,41.58230410882237,101790.5,793.0,-394.0,-164.0,-36.5625,34.0,8.75,-106.1875,15.0625,54.0,334.0625,62.0625,127.375,-0.1375732421875,-0.7894287109375,0.13409423828125,0.58294677734375,-73.0,-29.0,114.0,866.0,-364.0,-278.0,357,324.4965958650497,93.0607178028232,
200,4.808377742767334,0.02268815040588379,44.0758714179128,41.59406991283828,101790.5,790.0,-416.0,-143.0,-34.75,35.375,9.1875,-137.25,13.8125,66.4375,337.0625,60.875,128.6875,-0.16796875,-0.7899169921875,0.1171875,0.5780029296875,-41.0,-114.0,95.0,856.0,-372.0,-298.0,278,319.8469362785448,69.22083653284881,
201,4.83140754699707,0.023029804229736328,43.42199308445659,41.602783049202756,101790.5,797.0,-448.0,-137.0,-34.75,35.375,9.1875,-158.1875,21.9375,94.0625,339.1875,59.75,129.25,-0.19464111328125,-0.78826904296875,0.105224609375,0.57415771484375,-8.0,-85.0,115.0,847.0,-381.0,-312.0,259,313.76224265069027,42.54640763984207,
202,4.852520227432251,0.021112680435180664,47.36490011631452,41.62785326644375,101790.5,869.0,-450.0,-238.0,-33.25,35.0,14.0625,-196.375,30.3125,99.875,340.8125,59.1875,129.6875,-0.21099853515625,-0.7867431640625,0.09649658203125,0.57196044921875,26.0,-64.0,82.0,842.0,-385.0,-320.0,315,313.88601838562124,39.61170505440102,
203,4.875312805175781,0.022792577743530273,43.87393173568761,41.638353909207424,101790.5,766.0,-499.0,-481.0,-33.25,35.0,14.0625,-258.5,37.0625,124.1875,347.625,57.3125,132.3125,-0.27099609375,-0.77996826171875,0.0606689453125,0.56085205078125,-48.0,-103.0,-284.0,825.0,-390.0,-356.0,334,315.8974165470591,43.5026043003059,
204,4.899403810501099,0.024091005325317383,41.50926814785492,41.63771917774122,101790.5,740.0,-402.0,-707.0,-30.0,35.375,19.0,-150.625,38.5625,143.1875,350.0625,55.8125,132.125,-0.30712890625,-0.7706298828125,0.0482177734375,0.55633544921875,-71.0,5.0,-338.0,811.0,-408.0,-369.0,259,310.20767489235317,21.128234993304783,
205,4.921496391296387,0.022092580795288086,45.26406440542611,41.65399782930661,101790.5,706.0,-209.0,-575.0,-30.0,35.375,19.0,-27.1875,-105.5,54.0625,348.625,52.6875,132.5625,-0.33612060546875,-0.76947021484375,0.05364990234375,0.54046630859375,-41.0,-15.0,-12.0,780.0,-437.0,-402.0,339,313.08690740311783,29.86403745827629,
206,4.946246862411499,0.024750471115112305,40.403271329627884,41.64773933251818,101790.5,791.0,-631.0,-272.0,-25.875,36.25,23.5625,-21.1875,-95.625,22.6875,347.125,51.0,134.375,-0.33990478515625,-0.77764892578125,0.0592041015625,0.52557373046875,29.0,-190.0,160.0,762.0,-440.0,-432.0,273,309.0782166628061,14.517776889023589,
207,4.970223903656006,0.023977041244506836,41.706563783348415,41.648023109730445,101790.5,819.0,-688.0,-321.0,-25.875,36.25,23.5625,-71.25,-49.875,97.125,346.0,48.375,135.875,-0.359130859375,-0.78076171875,0.06219482421875,0.507568359375,40.0,-138.0,181.0,733.0,-452.0,-467.0,278,305.9703949965255,2.98702973374143,
208,4.9952781200408936,0.025054216384887695,39.913441499738305,41.63932317712416,101790.5,472.0,-313.0,-545.0,-23.0,36.6875,25.75,-90.1875,-15.125,172.625,345.0,45.9375,135.6875,-0.38641357421875,-0.77410888671875,0.0653076171875,0.49713134765625,-232.0,162.0,-57.0,705.0,-475.0,-487.0,259,301.2733554968729,-12.249933548265382,
209,5.020251274108887,0.024973154067993164,40.04299966585517,41.631382293129995,101790.5,767.0,-345.0,-901.0,-23.0,36.6875,25.75,-178.3125,-124.8125,201.6875,341.9375,40.25,136.4375,-0.44189453125,-0.762451171875,0.0740966796875,0.46685791015625,-73.0,-191.0,-187.0,633.0,-515.0,-542.0,268,297.9460199471856,-21.92885856874945,
210,5.050670146942139,0.030418872833251953,32.87432790431552,41.57864083187886,101790.5,441.0,-145.0,-837.0,-17.0,37.0625,29.1875,-165.1875,-112.8125,82.875,341.1875,36.3125,140.25,-0.47137451171875,-0.76641845703125,0.07110595703125,0.43048095703125,-140.0,359.0,-229.0,581.0,-504.0,-607.0,236,291.7514179524671,-36.466020060137836,
211,5.074226379394531,0.023556232452392578,42.45161029128965,41.58269344403531,101790.5,490.0,-445.0,-856.0,-17.0,37.0625,29.1875,-19.25,-31.125,15.0625,339.875,35.0,141.0625,-0.47705078125,-0.7686767578125,0.07421875,0.4195556640625,-72.0,37.0,-51.0,563.0,-504.0,-624.0,226,285.1762761572204,-55.87876702346942,
212,5.095862150192261,0.021635770797729492,46.21975382106295,41.60238125593752,101790.5,546.0,-537.0,-382.0,-10.0,34.5625,33.0,56.5,-38.875,52.0,335.4375,33.625,139.8125,-0.4771728515625,-0.76849365234375,0.09063720703125,0.41656494140625,3.0,-10.0,241.0,543.0,-526.0,-624.0,240,280.6586485414984,-68.1127565619044,
213,5.12187933921814,0.026017189025878906,38.4361277079286,41.586297898324695,101790.5,612.0,-671.0,-393.0,-10.0,34.5625,33.0,28.75,-19.0625,64.625,331.9375,31.875,138.4375,-0.4898681640625,-0.7601318359375,0.1033935546875,0.41412353515625,64.0,-70.0,151.0,518.0,-552.0,-623.0,240,276.5927836873486,-75.16582409913454,
214,5.143926620483398,0.02204728126525879,45.35706638694538,41.60245971391587,101790.5,519.0,-547.0,-664.0,-7.375,37.5,31.1875,-58.75,40.4375,155.0625,331.5625,30.5625,137.9375,-0.51068115234375,-0.74761962890625,0.10418701171875,0.41162109375,20.0,17.0,-37.0,499.0,-565.0,-627.0,240,272.9335053186137,-82.43048872312545,
215,5.168709993362427,0.02478337287902832,40.34963299310239,41.59645255317081,101792.0,277.0,-394.0,-922.0,-7.375,37.5,31.1875,-20.5,-35.75,161.3125,329.25,27.6875,137.1875,-0.5455322265625,-0.72607421875,0.1109619140625,0.40362548828125,-208.0,249.0,-282.0,456.0,-589.0,-636.0,254,271.04015478675234,-81.94772955230751,
216,5.193236827850342,0.02452683448791504,40.77166992310907,41.59255723552469,101792.0,356.0,-599.0,-640.0,-3.0,36.375,33.75,-0.75,-87.9375,124.625,324.0,24.8125,136.8125,-0.560546875,-0.718994140625,0.126953125,0.390869140625,-55.0,9.0,8.0,411.0,-608.0,-649.0,226,266.5361393080771,-90.08280978213254,
217,5.218390941619873,0.02515411376953125,39.75492872308159,41.583699348642455,101792.0,379.0,-580.0,-527.0,-3.0,36.375,33.75,-19.25,-58.625,121.875,317.625,21.0,136.8125,-0.582763671875,-0.7076416015625,0.14434814453125,0.37261962890625,-32.0,70.0,117.0,352.0,-626.0,-667.0,212,261.0825253772694,-100.22082764775915,
218,5.242096900939941,0.02370595932006836,42.1834858694559,41.586411720262404,101792.0,272.0,-522.0,-594.0,-3.0,36.375,33.75,-54.8125,-24.1875,123.5625,316.5625,20.0,137.0625,-0.591552734375,-0.70294189453125,0.1461181640625,0.366943359375,-63.0,104.0,79.0,336.0,-627.0,-674.0,231,258.07427283954246,-102.35504770929518,
219,5.2644078731536865,0.022310972213745117,44.8209961636692,41.600120142060014,101792.0,234.0,-447.0,-896.0,2.875,36.375,33.75,-80.375,-8.0,93.25,83.0,18.0,138.75,-0.61395263671875,-0.6932373046875,0.14239501953125,0.34954833984375,-69.0,167.0,-195.0,303.0,-614.0,-701.0,217,253.96684555558824,-108.89456249548456,
220,5.289940118789673,0.025532245635986328,39.16615930525726,41.58837246920208,101792.0,339.0,-584.0,-479.0,7.25,34.5625,36.5,-37.625,-43.1875,14.375,83.5,17.25,140.25,-0.620361328125,-0.69464111328125,0.13775634765625,0.33721923828125,60.0,58.0,5.0,291.0,-597.0,-720.0,245,253.07016100002943,-102.9925727078122,
221,5.314981460571289,0.02504134178161621,39.93396235397169,41.58057777613499,101792.0,440.0,-881.0,-829.0,7.25,34.5625,36.5,51.5,301.3125,131.875,86.125,18.6875,139.125,-0.640380859375,-0.6611328125,0.11627197265625,0.37322998046875,102.0,-262.0,-148.0,337.0,-619.0,-680.0,184,246.1631449000265,-116.81912856445066,
222,5.339954614639282,0.024973154067993164,40.04299966585517,41.573387045536954,101792.0,570.0,-112.0,-1638.0,7.25,34.5625,36.5,-45.0,-2.3125,59.25,327.6875,20.4375,136.875,-0.65093994140625,-0.6468505859375,0.11053466796875,0.38165283203125,227.0,514.0,-967.0,343.0,-627.0,-671.0,226,244.14683041002385,-113.93274071524945,
223,5.362195730209351,0.02224111557006836,44.96177347083164,41.58744126844725,101792.0,289.0,-382.0,-1237.0,8.25,31.0,37.875,-134.3125,-349.3125,32.9375,89.625,16.0625,140.25,-0.655029296875,-0.66876220703125,0.14520263671875,0.32037353515625,16.0,33.0,895.0,233.0,-602.0,-737.0,,244.14683041002385,-113.93274071524945,
224,5.386224031448364,0.024028301239013672,41.61759044273779,41.587575765905534,101792.0,425.0,-878.0,-629.0,8.25,31.0,37.875,220.6875,134.5625,60.6875,311.8125,14.875,135.875,-0.65081787109375,-0.65081787109375,0.15960693359375,0.35693359375,173.0,-219.0,51.0,251.0,-659.0,-680.0,231,242.83214736902147,-109.19523668702551,
225,5.411249399185181,0.025025367736816406,39.959452764757444,41.58004619670278,101792.0,337.0,-753.0,-509.0,9.75,30.0,39.875,214.75,116.375,121.5625,311.4375,14.9375,130.8125,-0.6541748046875,-0.61199951171875,0.18695068359375,0.40325927734375,93.0,-11.0,83.0,244.0,-741.0,-593.0,226,241.1489326321193,-105.84044493383831,
226,5.436742067337036,0.02549266815185547,39.226964947065206,41.56901269195152,101792.0,355.0,-827.0,-709.0,9.75,30.0,39.875,118.4375,-4.4375,136.75,306.5,12.4375,125.4375,-0.65869140625,-0.59130859375,0.2093505859375,0.41558837890625,144.0,-47.0,-153.0,211.0,-779.0,-555.0,236,240.63403936890737,-98.98902533813084,
227,5.459715843200684,0.02297377586364746,43.52789049284447,41.57725539557098,101792.0,85.0,-686.0,-964.0,12.375,34.5625,35.0,-2.6875,-117.375,119.25,300.75,9.4375,124.8125,-0.66595458984375,-0.5816650390625,0.2308349609375,0.4061279296875,-61.0,194.0,-354.0,130.0,-790.0,-566.0,250,241.57063543201664,-87.80845924139639,
228,5.483288049697876,0.023572206497192383,42.42284234694394,41.58089050466035,101792.0,187.0,-682.0,-950.0,12.375,34.5625,35.0,-167.3125,-566.125,42.5625,277.625,1.3125,128.9375,-0.6611328125,-0.61419677734375,0.28375244140625,0.32427978515625,164.0,79.0,-333.0,22.0,-762.0,-616.0,231,240.51357188881497,-84.37127370560043,
229,5.506604909896851,0.02331686019897461,42.88742101065461,41.58642280444442,101792.0,-552.0,-206.0,593.0,18.5625,38.375,32.1875,-12.6875,-432.25,9.0,254.5,-5.8125,130.4375,-0.63995361328125,-0.64276123046875,0.33514404296875,0.2548828125,122.0,260.0,-245.0,-51.0,-743.0,-636.0,334,249.86221469993347,-45.54643739965886,
230,5.529625654220581,0.02302074432373047,43.43908198351216,41.594135730408546,101792.0,-52.0,-972.0,-347.0,18.5625,38.375,32.1875,292.8125,99.375,-29.1875,258.9375,-4.1875,122.75,-0.62066650390625,-0.635986328125,0.3604736328125,0.304931640625,19.0,-150.0,182.0,-72.0,-822.0,-529.0,292,254.07599322994014,-27.259308725660333,
231,5.553601980209351,0.02397632598876953,41.707807963088186,41.59462648262959,101795.75,-148.0,-1363.0,-209.0,36.1875,35.5,24.1875,264.5625,201.75,210.9375,262.6875,-4.875,117.75,-0.61480712890625,-0.610107421875,0.3797607421875,0.324951171875,-49.0,-298.0,268.0,-69.0,-846.0,-490.0,250,253.66839390694614,-26.438569970752994,
232,5.575224161148071,0.021622180938720703,46.24880361671629,41.6126766017289,101795.75,-21.0,-908.0,-947.0,36.1875,35.5,24.1875,213.25,176.625,304.1875,264.0625,-8.3125,114.125,-0.63751220703125,-0.55426025390625,0.3958740234375,0.36541748046875,142.0,-289.0,-424.0,-142.0,-885.0,-396.0,226,250.9015545162515,-34.56052530263122,
233,5.598254442214966,0.02303028106689453,43.421094041161126,41.62011612816456,101795.75,-42.0,-769.0,-642.0,33.375,38.0,19.5625,249.875,-49.25,295.3125,260.0,-13.5,109.875,-0.66339111328125,-0.47491455078125,0.44287109375,0.371826171875,187.0,126.0,-317.0,-229.0,-896.0,-324.0,282,254.01139906462635,-20.99305507135064,
234,5.620929002761841,0.022674560546875,44.10228802153432,41.63012909165446,101795.75,-134.0,-823.0,-485.0,33.375,38.0,19.5625,356.125,-96.125,291.875,251.0,-22.8125,100.75,-0.6697998046875,-0.42608642578125,0.496826171875,0.373779296875,183.0,150.0,-222.0,-333.0,-893.0,-228.0,339,262.5102591581637,10.67192339035011,
235,5.645962476730347,0.02503347396850586,39.94651326691937,41.6226641548797,101795.75,-205.0,-777.0,1408.0,37.75,31.75,13.5,61.375,-448.3125,322.375,241.125,-29.3125,94.375,-0.6324462890625,-0.3651123046875,0.588134765625,0.3475341796875,275.0,74.0,1474.0,-480.0,-852.0,-65.0,423,278.5592332423473,61.106214013064964,
236,5.669996738433838,0.02403426170349121,41.60726933645481,41.6225988985644,101795.75,-768.0,-940.0,-27.0,37.75,31.75,13.5,47.5,-199.3125,144.0,229.125,-35.9375,89.25,-0.61279296875,-0.3453369140625,0.64630126953125,0.29583740234375,-192.0,-146.0,-37.0,-576.0,-807.0,-15.0,320,282.7033099181126,70.01161404397871,
237,5.695846796035767,0.02585005760192871,38.68463333425564,41.609265221976976,101795.75,-493.0,-563.0,-264.0,48.5625,22.6875,-1.5625,37.4375,-202.875,123.4375,224.125,-38.4375,85.5625,-0.59722900390625,-0.33648681640625,0.67474365234375,0.2735595703125,116.0,202.0,-323.0,-609.0,-765.0,58.0,395,293.93297892630136,99.1639351642073,
238,5.719824314117432,0.02397751808166504,41.70573437142658,41.60966962089698,101795.75,-852.0,-723.0,141.0,48.5625,22.6875,-1.5625,132.6875,-259.3125,200.25,216.75,-41.3125,76.1875,-0.55828857421875,-0.314453125,0.728515625,0.24237060546875,-204.0,-8.0,-33.0,-648.0,-714.0,131.0,357,300.2396810336712,112.2728717790454,
239,5.743849277496338,0.02402496337890625,41.6233724992061,41.60972693631973,101795.75,-575.0,-503.0,145.0,50.375,17.25,-9.1875,87.75,-194.5,148.75,212.25,-43.375,69.6875,-0.536865234375,-0.29315185546875,0.7598876953125,0.2200927734375,98.0,165.0,-101.0,-673.0,-668.0,246.0,306,300.81571293030413,105.20915325311985,
240,5.7669837474823,0.023134469985961914,43.22554182597673,41.61620883790025,101795.75,-424.0,-560.0,79.0,50.375,17.25,-9.1875,93.3125,-304.25,118.4375,206.1875,-43.4375,60.125,-0.492431640625,-0.27728271484375,0.80352783203125,0.18701171875,249.0,57.0,-214.0,-678.0,-636.0,309.0,,300.81571293030413,105.20915325311985,
241,5.793941020965576,0.026957273483276367,37.09573969416364,41.59517660396148,101795.75,-506.0,-296.0,687.0,50.0,11.75,-18.5625,267.1875,-373.5,94.8125,203.25,-40.9375,49.375,-0.43853759765625,-0.24859619140625,0.84588623046875,0.174072265625,136.0,265.0,204.0,-642.0,-562.0,482.0,,300.81571293030413,105.20915325311985,
242,5.817332983016968,0.0233919620513916,42.74972735519248,41.59981914504311,101795.75,-273.0,-600.0,934.0,50.0,11.75,-18.5625,201.6875,-282.9375,179.125,200.3125,-38.625,39.6875,-0.39276123046875,-0.21295166015625,0.88055419921875,0.15802001953125,339.0,-111.0,345.0,-612.0,-489.0,589.0,564,327.13414163727373,186.80087312407198,
243,5.840362071990967,0.023029088973999023,43.42334171920779,41.60700946356941,101795.75,-472.0,-92.0,833.0,43.25,1.5,-32.1875,-23.6875,-153.1875,278.0,190.875,-38.75,30.75,-0.36212158203125,-0.1846923828125,0.90948486328125,0.0867919921875,142.0,298.0,176.0,-614.0,-391.0,656.0,587,353.12072747354637,262.1307550248656,
244,5.86191987991333,0.02155780792236328,46.386905551869056,41.624588018696635,101795.75,-619.0,-76.0,-81.0,43.25,1.5,-32.1875,38.0625,-236.375,198.6875,186.0,-37.4375,26.1875,-0.33807373046875,-0.1719970703125,0.92401123046875,0.04864501953125,-23.0,267.0,-779.0,-596.0,-344.0,698.0,625,380.3086547261917,342.0533997124401,
245,5.88863730430603,0.026717424392700195,37.428757551690595,41.605551053525616,101795.75,-490.0,134.0,993.0,36.5,-5.875,-37.75,248.3125,-417.375,160.9375,180.5,-27.8125,15.125,-0.2752685546875,-0.1419677734375,0.95068359375,0.02020263671875,119.0,238.0,-210.0,-508.0,-273.0,792.0,642,406.47778925357255,393.04738306047796,
246,5.911666631698608,0.023029327392578125,43.422892164982606,41.61263063802304,101795.75,-693.0,-18.0,1111.0,36.5,-5.875,-37.75,243.4375,-194.9375,-26.6875,180.5625,-23.625,9.3125,-0.2060546875,-0.0751953125,0.97564697265625,0.00494384765625,-299.0,127.0,225.0,-393.0,-145.0,886.0,656,431.4300103282153,448.2834008157213,
247,5.934739351272583,0.02307271957397461,43.34122801578936,41.61935097402987,101795.75,13.0,104.0,1291.0,36.5,-5.875,-37.75,49.25,-155.6875,-130.4375,183.3125,-19.9375,7.8125,-0.17547607421875,-0.0599365234375,0.98223876953125,0.0286865234375,348.0,229.0,378.0,-334.0,-125.0,913.0,665,454.7870092953938,493.4064101905467,
248,5.958280086517334,0.023540735244750977,42.47955680241449,41.62274958526801,101796.0,-214.0,-79.0,899.0,24.5,-14.875,-43.5,-114.875,35.4375,-62.0625,185.0625,-18.75,11.5625,-0.16790771484375,-0.08935546875,0.98077392578125,0.0435791015625,101.0,106.0,-10.0,-315.0,-186.0,909.0,151,424.40830836585445,350.69599723770875,
249,5.9834489822387695,0.025168895721435547,39.73158024363905,41.614794533910114,101796.0,-244.0,-9.0,714.0,24.5,-14.875,-43.5,67.5625,43.875,-28.625,185.8125,-19.625,11.6875,-0.17657470703125,-0.0887451171875,0.97900390625,0.0501708984375,85.0,178.0,-189.0,-330.0,-187.0,904.0,653,447.267477529269,395.298790572222,
250,6.005721092224121,0.022272109985351562,44.899203562558874,41.62697470644888,101796.0,-180.0,-54.0,756.0,19.375,-17.5625,-44.6875,43.8125,-69.1875,-49.0,186.9375,-18.875,10.75,-0.170166015625,-0.080078125,0.9803466796875,0.05963134765625,137.0,119.0,-155.0,-317.0,-173.0,911.0,606,463.14072977634214,420.6905980337388,
251,6.0296950340271,0.023973941802978516,41.71195576506156,41.62731258936701,101796.0,-271.0,-194.0,1006.0,19.375,-17.5625,-44.6875,14.125,-10.1875,-44.0625,187.875,-16.1875,11.125,-0.14788818359375,-0.084228515625,0.9830322265625,0.068115234375,2.0,-12.0,82.0,-273.0,-182.0,923.0,170,433.8266567987079,289.2155649640905,
252,6.050696849822998,0.021001815795898438,47.61493052402143,41.64809545984308,101796.0,-223.0,-48.0,1018.0,20.75,-16.0625,-44.25,53.5,90.625,-33.6875,188.9375,-17.4375,10.375,-0.1590576171875,-0.07513427734375,0.98138427734375,0.07696533203125,71.0,120.0,98.0,-294.0,-168.0,919.0,806,471.04399111883714,407.8463828023418,
253,6.072362422943115,0.021665573120117188,46.156175719693636,41.66417983289237,101796.0,-387.0,-108.0,852.0,20.75,-16.0625,-44.25,1.6875,138.875,-9.1875,189.5,-19.875,10.3125,-0.18023681640625,-0.07135009765625,0.9776611328125,0.081298828125,-52.0,57.0,-54.0,-334.0,-165.0,906.0,658,489.73959200695344,444.252067360327,
254,6.096338510513306,0.02397608757019043,41.70822270616429,41.66435304764818,101796.0,-267.0,-300.0,929.0,20.0,-18.0,-44.5625,-74.4375,105.5,-58.75,190.5625,-22.6875,12.5,-0.2069091796875,-0.08392333984375,0.97332763671875,0.0902099609375,2.0,77.0,-4.0,-365.0,-181.0,891.0,484,489.16563280625815,406.7967965181527,
255,6.118590831756592,0.022252321243286133,44.93913192547116,41.676262886628066,101796.0,-396.0,-116.0,784.0,20.0,-18.0,-44.5625,-25.3125,148.4375,-80.5625,192.1875,-25.0,14.375,-0.22967529296875,-0.09222412109375,0.96337890625,0.1031494140625,19.0,104.0,-75.0,-415.0,-220.0,860.0,451,485.3490695256324,360.5320095351045,
256,6.144937753677368,0.026346921920776367,37.95509786710344,41.66030808803551,101796.0,-377.0,-10.0,904.0,24.375,-16.875,-42.0,23.1875,111.9375,-63.4375,193.9375,-27.0,14.875,-0.24810791015625,-0.08929443359375,0.9573974609375,0.1175537109375,67.0,214.0,59.0,-445.0,-224.0,844.0,414,478.2141625730692,310.0249614397191,
257,6.168823957443237,0.02388620376586914,41.86517078234484,41.661101333570485,101796.0,-336.0,-238.0,810.0,24.375,-16.875,-42.0,-39.0625,118.0625,27.125,194.4375,-30.25,15.9375,-0.277099609375,-0.09014892578125,0.948974609375,0.12066650390625,158.0,-4.0,-3.0,-494.0,-233.0,814.0,367,467.09274631576227,247.97496524824552,
258,6.191272258758545,0.022448301315307617,44.5468004885561,41.67156429520891,101796.0,-465.0,-380.0,614.0,28.5,-15.375,-40.0625,-49.375,74.1875,-3.125,194.25,-31.875,17.1875,-0.29217529296875,-0.09637451171875,0.944091796875,0.11846923828125,53.0,-134.0,-180.0,-518.0,-246.0,795.0,409,461.2834716841861,207.43420018870162,
259,6.213350772857666,0.022078514099121094,45.29290311433631,41.684432356758734,101796.0,-669.0,-281.0,280.0,28.5,-15.375,-40.0625,-11.4375,89.5625,-44.25,194.9375,-33.1875,18.3125,-0.30511474609375,-0.1002197265625,0.93890380859375,0.12353515625,-131.0,-23.0,-497.0,-537.0,-258.0,778.0,428,457.9551245157675,178.7794237072008,
260,6.2369225025177,0.02357172966003418,42.42370052697058,41.68722633559164,101796.0,-325.0,-403.0,519.0,32.1875,-14.25,-38.1875,185.0625,58.9375,-47.375,198.3125,-34.1875,15.875,-0.3118896484375,-0.070556640625,0.93536376953125,0.1512451171875,40.0,-146.0,297.0,-551.0,-221.0,780.0,395,451.65961206419075,143.11075501786416,
261,6.258957147598267,0.022034645080566406,45.383077256005194,41.70023757075136,101796.0,-575.0,-278.0,711.0,32.1875,-14.25,-38.1875,3.25,-24.0,-40.75,199.375,-34.0,15.4375,-0.31024169921875,-0.0650634765625,0.934814453125,0.159912109375,-27.0,-61.0,-72.0,-548.0,-216.0,783.0,437,450.1936508577717,126.33950816161713,
262,6.282262325286865,0.023305177688598633,42.90891978434562,41.70472139398228,101796.0,-717.0,-153.0,1030.0,32.1875,-14.25,-38.1875,-11.4375,34.0625,-38.0,200.0625,-33.9375,15.9375,-0.31097412109375,-0.06695556640625,0.9334716796875,0.16552734375,-169.0,70.0,248.0,-547.0,-223.0,782.0,390,444.1742857719945,95.56959121922351,
263,6.307254791259766,0.02499246597290039,40.01205807719459,41.6980142239458,101796.0,-512.0,-199.0,914.0,34.375,-15.75,-36.25,-53.75,79.5625,-46.4375,201.375,-35.4375,18.9375,-0.329345703125,-0.0810546875,0.92437744140625,0.17474365234375,56.0,60.0,159.0,-569.0,-259.0,755.0,343,434.0568571947951,55.53849273586397,
264,6.332310914993286,0.025056123733520508,39.910403166719,41.69094088145858,101794.75,-617.0,-297.0,793.0,34.375,-15.75,-36.25,-91.9375,83.1875,-44.1875,201.875,-36.6875,21.5625,-0.3443603515625,-0.09429931640625,0.91705322265625,0.177734375,-30.0,-8.0,62.0,-586.0,-289.0,730.0,329,423.5511714753156,17.55252110841326,
265,6.356899261474609,0.024588346481323242,40.66967255238483,41.68699063803128,101794.75,-641.0,-364.0,682.0,35.75,-13.0625,-36.0,11.1875,66.4375,-56.6875,203.5625,-38.3125,24.0,-0.3631591796875,-0.1004638671875,0.90673828125,0.1893310546875,-33.0,-50.0,-19.0,-608.0,-313.0,702.0,376,418.7960543277841,0.6771948326732744,
266,6.38086462020874,0.02396535873413086,41.72689468552896,41.68714051032448,101794.75,-514.0,-258.0,760.0,35.75,-13.0625,-36.0,57.25,18.375,-62.375,205.1875,-38.3125,24.125,-0.364501953125,-0.0960693359375,0.90386962890625,0.20220947265625,93.0,56.0,58.0,-608.0,-314.0,701.0,367,413.61644889500565,-16.667288786431723,
267,6.405983209609985,0.025118589401245117,39.81115276920887,41.6797845488352,101794.75,-511.0,-346.0,848.0,38.375,-9.75,-32.875,31.3125,16.0625,-44.125,207.4375,-38.0625,24.125,-0.36431884765625,-0.08966064453125,0.900390625,0.22021484375,93.0,-30.0,143.0,-604.0,-315.0,704.0,348,407.0548040055051,-36.232037452573564,
268,6.4311370849609375,0.02515387535095215,39.75530553633546,41.67225740323771,101794.75,-411.0,-288.0,859.0,38.375,-9.75,-32.875,26.3125,60.875,-33.75,208.5,-38.5625,24.375,-0.36993408203125,-0.08587646484375,0.89654541015625,0.22802734375,200.0,27.0,162.0,-612.0,-316.0,697.0,390,405.3493236049546,-38.75762600917712,
269,6.45411229133606,0.02297520637512207,43.5251803040523,41.67885339725234,101794.75,-554.0,-239.0,855.0,39.5,-9.75,-34.75,3.3125,71.4375,-27.5625,208.9375,-39.125,24.75,-0.37506103515625,-0.08514404296875,0.893798828125,0.230712890625,64.0,79.0,165.0,-618.0,-318.0,690.0,395,404.3143912444591,-39.26066533588807,
270,6.477781057357788,0.023668766021728516,42.249773354554065,41.68093944659035,101794.75,-584.0,-355.0,584.0,39.5,-9.75,-34.75,-4.6875,-1.5625,-56.625,210.625,-39.875,27.375,-0.38812255859375,-0.09332275390625,0.88427734375,0.2423095703125,44.0,-8.0,-83.0,-628.0,-346.0,668.0,395,403.3829521200132,-39.26805946112927,
271,6.501329660415649,0.023548603057861328,42.465363976916066,41.68378072719884,101794.75,-567.0,-302.0,517.0,41.6875,-8.25,-31.375,14.1875,-50.25,-53.6875,211.0625,-39.1875,27.4375,-0.3836669921875,-0.09503173828125,0.8848876953125,0.24639892578125,-24.0,2.0,-37.0,-607.0,-351.0,685.0,400,403.0446569080119,-37.27588104898158,
272,6.526007890701294,0.02467823028564453,40.52154422846543,41.67938570646909,101794.75,-534.0,-260.0,769.0,41.6875,-8.25,-31.375,12.5,-30.0,-66.125,213.3125,-36.25,27.125,-0.36297607421875,-0.0986328125,0.88763427734375,0.26580810546875,74.0,95.0,41.0,-580.0,-360.0,703.0,395,402.24019121721074,-36.901665930669694,
273,6.550030946731567,0.024023056030273438,41.626677252878125,41.67919239163681,101794.75,-490.0,-320.0,785.0,41.25,-5.375,-32.5,5.0,-29.0625,-74.5,213.8125,-35.6875,27.4375,-0.35992431640625,-0.1016845703125,0.88726806640625,0.27001953125,81.0,47.0,78.0,-572.0,-367.0,706.0,447,406.71617209548964,-19.04391574340253,
274,6.573577642440796,0.023546695709228516,42.46880379093174,41.68202079655709,101794.75,-352.0,-520.0,814.0,41.25,-5.375,-32.5,-26.4375,-70.5625,-52.5625,215.0625,-33.5625,28.8125,-0.34906005859375,-0.1162109375,0.88653564453125,0.28045654296875,272.0,0.0,342.0,-542.0,-394.0,715.0,470,413.04455488594067,3.9803052793955835,
275,6.598550319671631,0.02497267723083496,40.04376426109621,41.67582069961165,101794.75,-168.0,-616.0,947.0,41.0,-4.5625,-33.6875,-121.3125,-91.6875,-91.875,215.625,-31.4375,30.75,-0.338623046875,-0.1375732421875,0.8861083984375,0.28497314453125,343.0,-187.0,228.0,-511.0,-428.0,718.0,428,414.54009939734664,8.452859405581286,
276,6.623520135879517,0.024969816207885742,40.04835244578969,41.669685354304555,101794.75,-112.0,-679.0,1368.0,41.0,-4.5625,-33.6875,9.6875,-129.625,-83.5625,216.6875,-26.3125,32.75,-0.30645751953125,-0.17108154296875,0.888671875,0.29510498046875,338.0,-78.0,439.0,-435.0,-475.0,739.0,353,408.386089457612,-11.940006068576068,
277,6.646151065826416,0.022630929946899414,44.187313660833745,41.67825817626919,101794.75,-156.0,-478.0,988.0,38.0,-0.5625,-37.0625,38.375,-75.0,-76.875,218.0,-24.125,32.1875,-0.2899169921875,-0.17352294921875,0.88983154296875,0.30657958984375,244.0,-1.0,231.0,-401.0,-477.0,756.0,522,419.7474805118508,29.17754242787333,
278,6.66983962059021,0.023688554763793945,42.21447910061697,41.68016261467468,101794.75,-354.0,-350.0,960.0,38.0,-0.5625,-37.0625,-60.4375,19.5625,-59.875,219.4375,-23.3125,33.8125,-0.2904052734375,-0.18511962890625,0.8836669921875,0.317138671875,83.0,74.0,212.0,-388.0,-501.0,748.0,418,419.57273246066575,26.253187197273387,
279,6.694287300109863,0.02444767951965332,40.903677553368894,41.67732687472514,101794.75,-243.0,-281.0,1170.0,34.0,1.6875,-39.0,-87.0625,-52.625,-48.625,219.9375,-22.125,35.5625,-0.287841796875,-0.20172119140625,0.87982177734375,0.3199462890625,126.0,246.0,432.0,-370.0,-528.0,738.0,404,418.0154592145992,19.057076003924045,
280,6.718964338302612,0.024677038192749023,40.52350173424925,41.67308916997994,101797.0,-395.0,-209.0,1155.0,34.0,1.6875,-39.0,-37.4375,-27.375,-82.5625,221.125,-19.9375,37.75,-0.2794189453125,-0.2247314453125,0.8740234375,0.327880859375,-179.0,415.0,305.0,-334.0,-564.0,728.0,508,427.0139132931393,46.70441948019261,
281,6.740892171859741,0.021927833557128906,45.604140390553646,41.68587671125365,101797.0,-909.0,51.0,658.0,33.1875,7.25,-39.0,9.25,1.0625,-73.6875,221.8125,-19.5,37.875,-0.27783203125,-0.22576904296875,0.87213134765625,0.33355712890625,-522.0,593.0,103.0,-327.0,-567.0,729.0,404,424.71252196382534,34.57182805972627,
282,6.766417980194092,0.025525808334350586,39.17603653923391,41.67640852596442,101797.0,-786.0,262.0,439.0,33.1875,7.25,-39.375,-49.4375,14.8125,-52.3125,224.125,-18.8125,38.8125,-0.280517578125,-0.22991943359375,0.86358642578125,0.3502197265625,-320.0,870.0,-427.0,-317.0,-582.0,722.0,390,421.2412697674428,20.92688958435796,
283,6.789041996002197,0.02262401580810547,44.20081777178266,41.6848209462613,101797.0,-429.0,304.0,279.0,33.1875,7.25,-39.375,-75.5625,-5.3125,-68.875,224.625,-18.375,39.6875,-0.281005859375,-0.2371826171875,0.86016845703125,0.35333251953125,-119.0,899.0,-435.0,-309.0,-594.0,715.0,456,424.7171427906986,31.543652825511963,
284,6.812017917633057,0.022975921630859375,43.52382533621119,41.69102363410698,101797.0,-418.0,170.0,65.0,32.5,9.5,-38.5625,-107.125,-175.6875,-157.375,226.5625,-13.625,43.125,-0.25958251953125,-0.2794189453125,0.8489990234375,0.36566162109375,-186.0,565.0,-682.0,-231.0,-651.0,695.0,357,417.94542851162873,5.4416878387539676,
285,6.836989164352417,0.02497124671936035,40.04605822202278,41.685015603940116,101797.0,-541.0,-600.0,243.0,32.5,9.5,-38.5625,-90.0,-321.5625,-166.0,227.5,-7.25,44.625,-0.21484375,-0.317626953125,0.84515380859375,0.372314453125,-417.0,83.0,-449.0,-124.0,-683.0,692.0,343,410.4508856604659,-19.003799137555355,
286,6.861690998077393,0.024701833724975586,40.48282451957879,41.68068776051495,101797.0,-492.0,-809.0,755.0,29.875,13.875,-39.25,-172.0,-91.625,58.0,225.375,-2.3125,48.5,-0.1788330078125,-0.37017822265625,0.84100341796875,0.3516845703125,-200.0,79.0,-167.0,-39.0,-733.0,649.0,390,408.4057970944193,-24.106772130251716,
287,6.885460138320923,0.023769140243530273,42.07135764080445,41.6820363831178,101797.0,-159.0,-479.0,151.0,29.875,13.875,-39.25,-181.0,-60.1875,-2.3125,224.125,-2.0,51.6875,-0.18218994140625,-0.396728515625,0.8336181640625,0.33831787109375,-124.0,290.0,-455.0,-34.0,-769.0,606.0,348,402.3652173849774,-42.50906150492888,
288,6.910403728485107,0.02494359016418457,40.09045985031686,41.676291475250046,101797.0,-467.0,-902.0,24.0,19.5625,20.1875,-41.6875,-197.8125,-66.6875,-45.375,225.1875,0.0,57.3125,-0.1842041015625,-0.443115234375,0.80987548828125,0.33734130859375,-434.0,-309.0,-655.0,0.0,-825.0,528.0,376,399.7286956464797,-47.56428609667301,
289,6.932100296020508,0.02169656753540039,46.09023977495,41.69010655629225,101797.0,-181.0,-1161.0,116.0,19.5625,20.1875,-41.6875,-223.5625,-206.6875,-18.375,223.625,2.125,61.625,-0.170166015625,-0.4833984375,0.79718017578125,0.3192138671875,-218.0,-299.0,-348.0,36.0,-862.0,465.0,240,383.75582608183174,-102.65461425922925,
290,6.959182500839233,0.027082204818725586,36.9246155065102,41.67156127390363,101797.0,-207.0,-1149.0,135.0,17.25,26.5625,-39.5,-176.125,-265.875,-52.75,220.375,6.25,67.6875,-0.129150390625,-0.54302978515625,0.77874755859375,0.286376953125,-326.0,-382.0,-111.0,107.0,-901.0,369.0,362,381.5802434736486,-100.86884922327603,
291,6.983769178390503,0.02458667755126953,40.67243318723091,41.66804379795734,101797.0,-279.0,-1306.0,198.0,17.25,26.5625,-39.5,-171.25,-151.5625,-11.0,218.6875,8.0625,71.5,-0.1099853515625,-0.5753173828125,0.7646484375,0.26873779296875,-417.0,-385.0,-109.0,138.0,-920.0,307.0,254,368.8222191262837,-134.31133271495503,
292,7.007521152496338,0.02375197410583496,42.10176364895656,41.66951389022619,101797.0,-78.0,-1118.0,-222.0,10.1875,33.25,-35.25,-133.0625,-92.25,58.875,215.375,7.625,76.125,-0.10516357421875,-0.6085205078125,0.74920654296875,0.2393798828125,-57.0,-170.0,-361.0,131.0,-943.0,232.0,245,356.4399972136553,-165.27149653091152,
293,7.040814638137817,0.03329348564147949,30.03590584562062,41.61450273281073,101797.0,-143.0,-1318.0,451.0,5.75,37.5,-30.0625,-151.6875,-249.25,-42.5625,210.875,9.5625,82.25,-0.06634521484375,-0.6552734375,0.7252197265625,0.20068359375,-307.0,-360.0,321.0,163.0,-958.0,129.0,245,345.2959974922898,-178.82738691840314,
294,7.064860582351685,0.024045944213867188,41.58705481081939,41.61440931112274,101797.0,105.0,-1094.0,-34.0,5.75,37.5,-30.0625,-39.3125,-138.5625,45.5,206.4375,8.9375,84.8125,-0.04949951171875,-0.67340087890625,0.71807861328125,0.16876220703125,113.0,-73.0,-228.0,153.0,-964.0,86.0,264,337.1663977430608,-191.56808479382764,
295,7.087760925292969,0.02290034294128418,43.667468324119476,41.62104268320906,101797.0,553.0,-973.0,388.0,0.875,40.5,-26.375,-215.9375,-79.25,69.875,203.9375,7.5625,86.5625,-0.0517578125,-0.683837890625,0.71038818359375,0.15826416015625,249.0,-83.0,-102.0,140.0,-968.0,58.0,,337.1663977430608,-191.56808479382764,
296,7.111781120300293,0.02402019500732422,41.631635367451466,41.621078460229874,101801.75,406.0,-1005.0,358.0,0.875,40.5,-26.375,-212.375,-60.625,33.0,203.0,7.1875,92.3125,-0.054443359375,-0.71942138671875,0.678466796875,0.13836669921875,284.0,-33.0,398.0,122.0,-972.0,-40.0,254,328.8497579687547,-203.9414631756299,
297,7.134772062301636,0.022990942001342773,43.49539048646182,41.627118204556844,101801.75,131.0,-842.0,23.0,0.875,40.5,-26.375,-0.3125,-68.625,-31.6875,202.3125,7.5,93.0625,-0.045654296875,-0.724365234375,0.67486572265625,0.1331787109375,2.0,128.0,75.0,128.0,-970.0,-52.0,221,318.0647821718793,-225.1538848153504,
298,7.155354261398315,0.020582199096679688,48.585673246223706,41.64713431557813,101801.75,40.0,-897.0,-150.0,-0.375,46.1875,-19.75,24.4375,-93.375,-47.5,200.5,8.5,92.75,-0.02142333984375,-0.72357177734375,0.67889404296875,0.1229248046875,-49.0,52.0,-185.0,145.0,-968.0,-47.0,250,311.25830395469137,-233.59736015954897,
299,7.180795192718506,0.02544093132019043,39.30673714001893,41.63884249242939,101801.75,59.0,-869.0,57.0,-0.375,46.1875,-19.75,17.1875,-89.75,1.0625,198.375,8.4375,92.625,-0.00958251953125,-0.72296142578125,0.681884765625,0.110595703125,-84.0,99.0,102.0,144.0,-968.0,-44.0,287,308.83247355922225,-222.5376895628629,
300,7.202775716781616,0.02198052406311035,45.49482064798846,41.650609681075515,101801.75,124.0,-1237.0,315.0,-1.5625,44.75,-20.375,11.4375,-61.8125,-10.1875,196.625,8.5625,92.625,0.0029296875,-0.72320556640625,0.683349609375,0.1002197265625,-66.0,-175.0,432.0,146.0,-968.0,-45.0,315,309.44922620330004,-202.48995032371454,
301,7.228399276733398,0.025623559951782227,39.02658342095224,41.64130791292226,101801.75,72.0,-1081.0,427.0,-1.5625,44.75,-20.375,7.9375,-48.625,-0.625,196.1875,8.5,92.625,0.00836181640625,-0.720458984375,0.68670654296875,0.0965576171875,-131.0,-146.0,345.0,147.0,-968.0,-37.0,287,307.20430358297006,-193.29968709108866,
302,7.254423379898071,0.02602410316467285,38.42591591619104,41.629773199733386,101801.75,-503.0,-1286.0,-1033.0,-3.75,44.75,-19.1875,139.4375,-23.125,-6.375,195.5,8.875,89.8125,0.0137939453125,-0.70611572265625,0.70147705078125,0.095703125,-654.0,-317.0,-1036.0,151.0,-968.0,2.0,329,309.38387322467304,-171.13555534095667,
303,7.278100967407227,0.023677587509155273,42.23403248381347,41.63173901501145,101801.75,-50.0,-1232.0,10.0,-3.75,44.75,-19.1875,-28.375,44.0625,-37.25,195.0625,8.75,89.6875,0.01556396484375,-0.70660400390625,0.70135498046875,0.0927734375,-200.0,-263.0,9.0,149.0,-969.0,0.0,376,316.04548590220577,-134.93696961628007,
304,7.300952434539795,0.02285146713256836,43.760866389833694,41.63840303380393,101801.75,374.0,-802.0,208.0,-5.0,43.0625,-21.5,-35.6875,60.1875,35.0625,195.6875,8.5,90.4375,0.008056640625,-0.71002197265625,0.697509765625,0.09637451171875,229.0,167.0,217.0,145.0,-969.0,-8.0,325,316.9409373119852,-121.00715368682206,
305,7.325015306472778,0.0240628719329834,41.55779920140299,41.63813824805056,101801.75,367.0,-963.0,129.0,-5.0,43.0625,-21.5,-33.125,27.0,-42.375,197.125,8.9375,91.125,0.0086669921875,-0.71551513671875,0.69036865234375,0.106201171875,103.0,-191.0,134.0,160.0,-967.0,-23.0,292,314.44684358078666,-119.61850510952638,
306,7.348191499710083,0.023176193237304688,43.147724467122046,41.64289948241999,101801.75,96.0,-920.0,113.0,-5.375,44.0625,-21.875,-42.625,-8.875,-17.25,197.375,9.75,91.9375,0.01251220703125,-0.7188720703125,0.6871337890625,0.10418701171875,139.0,-76.0,340.0,163.0,-966.0,-33.0,278,310.80215922270804,-122.62981161692475,
307,7.37259578704834,0.024404287338256836,40.97640656903643,41.64069330090172,101801.75,143.0,-892.0,124.0,-5.375,44.0625,-21.875,63.125,2.9375,-37.75,198.125,10.4375,92.25,0.01739501953125,-0.71710205078125,0.68798828125,0.10992431640625,-34.0,71.0,153.0,178.0,-963.0,-28.0,231,302.8219433004373,-138.97947245874394,
308,7.397680997848511,0.0250852108001709,39.86412583757069,41.63466903879426,101801.75,233.0,-999.0,135.0,-5.75,44.875,-20.375,-4.625,-3.0,-1.5,198.625,11.125,90.75,0.0225830078125,-0.71136474609375,0.69317626953125,0.11370849609375,43.0,-37.0,147.0,189.0,-962.0,-12.0,160,288.5397489703936,-173.40889002280446,
309,7.421953916549683,0.024272918701171875,41.1981769605532,41.633241525655805,101801.75,291.0,-1195.0,329.0,-5.75,44.875,-20.375,-77.5625,-39.8125,-11.5,198.125,11.125,91.9375,0.026123046875,-0.71844482421875,0.6864013671875,0.10955810546875,102.0,-233.0,362.0,189.0,-961.0,-32.0,165,276.18577407335425,-200.25307833893677,
310,7.443930387496948,0.021976470947265625,45.503211248047215,41.64466671003338,101801.75,281.0,-1176.0,113.0,-7.1875,44.5,-19.25,-69.4375,-21.25,-13.1875,198.375,11.5,93.875,0.02960205078125,-0.72967529296875,0.67437744140625,0.109375,85.0,-218.0,178.0,195.0,-958.0,-65.0,254,273.9671966660188,-192.30902378671215,
311,7.467801809310913,0.023871421813964844,41.89109504214774,41.64545443777616,101801.75,105.0,-984.0,-205.0,-7.1875,44.5,-19.25,-89.875,-9.125,4.875,195.4375,11.0,93.375,0.04217529296875,-0.72601318359375,0.68017578125,0.09222412109375,-362.0,24.0,-751.0,186.0,-960.0,-71.0,292,275.7704769994169,-170.8809908570539,
312,7.4939446449279785,0.02614283561706543,38.251397616072815,41.63361417556862,101800.5,362.0,-909.0,-109.0,-8.75,46.0,-18.1875,-76.5625,-60.75,23.625,194.1875,10.3125,96.5625,0.04290771484375,-0.744873046875,0.66070556640625,0.08245849609375,186.0,48.0,1.0,176.0,-958.0,-111.0,264,274.59342929947525,-160.81240915517384,
313,7.519576072692871,0.025631427764892578,39.014603836064964,41.624686947001,101800.5,310.0,-1217.0,79.0,-8.75,46.0,-18.1875,-53.3125,-23.3125,-19.875,193.1875,10.3125,98.25,0.05035400390625,-0.7540283203125,0.65057373046875,0.07537841796875,134.0,-6.0,176.0,172.0,-956.0,-130.0,207,267.8340863695277,-169.0444633510807,
314,7.551541090011597,0.031965017318725586,31.284200162600413,41.580916564875345,101800.5,265.0,-1051.0,17.0,-9.1875,48.1875,-14.75,-24.75,53.1875,-24.0,194.9375,11.125,99.3125,0.05059814453125,-0.75970458984375,0.64276123046875,0.0843505859375,75.0,-102.0,174.0,189.0,-949.0,-156.0,278,268.8506777325749,-152.97664646818308,
315,7.57451605796814,0.02297496795654297,43.52563197874725,41.58681526176586,101800.5,61.0,-900.0,-409.0,-9.1875,48.1875,-14.75,-18.875,76.1875,-9.1875,196.9375,11.5625,99.3125,0.04351806640625,-0.76007080078125,0.6412353515625,0.09564208984375,38.0,-388.0,171.0,197.0,-947.0,-156.0,231,265.06560995931744,-153.91831210380215,
316,7.598643064498901,0.02412700653076172,41.44732993398949,41.58637237171488,101800.5,303.0,-1017.0,293.0,-9.1875,47.5,-14.5625,50.4375,51.1875,13.25,198.8125,11.5625,99.4375,0.0308837890625,-0.76123046875,0.6390380859375,0.10589599609375,107.0,-70.0,450.0,196.0,-947.0,-157.0,259,264.45904896338567,-143.61607383337585,
317,7.622625350952148,0.02398228645324707,41.697442066229904,41.586721818933846,101800.5,310.0,-562.0,-353.0,-9.1875,47.5,-14.5625,24.875,8.625,68.25,197.4375,10.625,96.875,0.0263671875,-0.7471923828125,0.6563720703125,0.1007080078125,128.0,394.0,-237.0,181.0,-956.0,-115.0,207,258.7131440670471,-151.29395084935734,
318,7.645600318908691,0.02297496795654297,43.52563197874725,41.59254822849415,101800.5,-45.0,-761.0,185.0,-8.75,48.5625,-14.1875,-56.125,69.3125,38.25,199.75,9.5,100.5625,0.0045166015625,-0.7659912109375,0.6337890625,0.10736083984375,-205.0,73.0,479.0,166.0,-951.0,-170.0,254,258.2418296603424,-140.83157537440965,
319,7.669634580612183,0.02403426170349121,41.60726933645481,41.59259435989162,101800.5,-244.0,-877.0,-125.0,-8.75,48.5625,-14.1875,43.8125,-10.4375,-46.9375,200.3125,10.125,99.625,0.0018310546875,-0.7633056640625,0.6358642578125,0.11407470703125,-417.0,74.0,37.0,173.0,-951.0,-162.0,203,252.71764669430814,-147.95274282698827,
320,7.693629503250122,0.023994922637939453,41.67548339659387,41.59285287455266,101800.5,130.0,-550.0,-260.0,-6.1875,47.875,-13.75,71.125,-17.1875,-27.625,200.125,10.6875,98.5625,0.00982666015625,-0.75714111328125,0.64306640625,0.11431884765625,-51.0,402.0,-117.0,182.0,-952.0,-143.0,240,251.44588202487733,-140.3566359900483,
321,7.716214418411255,0.022584915161132812,44.27734144075669,41.60071021796371,101800.5,165.0,-896.0,-34.0,-6.1875,47.875,-13.75,193.0,12.625,-16.5625,200.4375,11.75,94.25,0.02032470703125,-0.7320556640625,0.67010498046875,0.12091064453125,-34.0,60.0,37.0,200.0,-957.0,-71.0,268,253.1012938223896,-123.26432644016383,
322,7.740178346633911,0.02396392822265625,41.72938554600446,41.601108602366125,101800.5,57.0,-987.0,-58.0,-7.6875,46.375,-17.1875,160.3125,33.875,-143.375,201.9375,13.4375,90.6875,0.03070068359375,-0.71075439453125,0.68994140625,0.13385009765625,-170.0,-33.0,-46.0,228.0,-953.0,-11.0,259,253.69116444015066,-111.43398525048588,
323,7.762368202209473,0.022189855575561523,45.065638061265055,41.61101246241599,101800.5,871.0,-471.0,29.0,-7.6875,46.375,-17.1875,130.375,149.9375,24.75,204.25,14.3125,87.3125,0.02679443359375,-0.690673828125,0.70654296875,0.15185546875,628.0,477.0,-14.0,242.0,-949.0,43.0,231,251.4220479961356,-110.70000086123478,
324,7.786947727203369,0.024579524993896484,40.68426872562904,41.60808719289586,101800.5,104.0,-1068.0,800.0,-9.5,41.5625,-24.375,110.5625,122.1875,37.0,207.3125,13.5625,82.375,0.0001220703125,-0.66009521484375,0.72991943359375,0.17755126953125,-125.0,-123.0,674.0,230.0,-944.0,126.0,236,249.87984319652205,-106.86347875213063,
325,7.808328866958618,0.021381139755249023,46.77019146065411,41.62222231382386,101800.5,519.0,-1010.0,302.0,-9.5,41.5625,-24.375,20.4375,-69.375,28.625,206.125,12.9375,81.75,-0.000244140625,-0.65594482421875,0.7352294921875,0.17095947265625,300.0,-64.0,165.0,219.0,-945.0,136.0,268,251.69185887686984,-91.53453482799426,
326,7.832315683364868,0.02398681640625,41.68956743002545,41.62242856124844,101800.5,249.0,-1020.0,299.0,-9.5,41.5625,-24.375,12.5625,-141.0,84.0625,202.875,12.0,82.125,0.00811767578125,-0.65826416015625,0.73773193359375,0.14959716796875,44.0,-70.0,169.0,204.0,-950.0,130.0,,251.69185887686984,-91.53453482799426,
327,7.85709547996521,0.024779796600341797,40.35545634729732,41.61843276994871,101800.5,-134.0,-866.0,335.0,-4.0,41.1875,-26.375,-59.125,-43.375,47.5,198.0,9.75,83.25,0.009521484375,-0.66522216796875,0.73736572265625,0.116943359375,-300.0,93.0,223.0,166.0,-959.0,112.0,240,250.52267298918287,-87.98641444594897,
328,7.889286994934082,0.03219151496887207,31.064086327312047,41.57536672333221,101796.25,405.0,-1046.0,-5.0,-5.0625,41.1875,-26.6875,-42.5625,-40.875,-32.5625,198.1875,10.5,85.375,0.0172119140625,-0.6783447265625,0.72528076171875,0.11639404296875,226.0,-85.0,-82.0,179.0,-961.0,77.0,254,250.8704056902646,-80.08334139865448,
329,7.914048433303833,0.024761438369750977,40.38537604590928,41.5716434859692,101796.25,242.0,-1025.0,-402.0,-5.0625,41.1875,-26.6875,-68.75,-93.0,-38.75,197.3125,11.5,87.4375,0.03497314453125,-0.69073486328125,0.71405029296875,0.10882568359375,45.0,-65.0,-445.0,196.0,-959.0,42.0,264,252.18336512123815,-69.4347252585309,
330,7.939021825790405,0.024973392486572266,40.04261737918393,41.566833703363116,101796.25,376.0,-1700.0,736.0,-6.1875,43.375,-23.25,-97.1875,-166.9375,-61.0625,195.875,12.6875,89.875,0.05859375,-0.70416259765625,0.70086669921875,0.097900390625,160.0,-743.0,735.0,215.0,-956.0,1.0,250,251.96502860911434,-64.57936847103879,
331,7.962997913360596,0.02397608757019043,41.70822270616429,41.56725941678782,101796.25,174.0,-1182.0,-403.0,-6.1875,43.375,-23.25,41.375,-66.625,41.0,194.1875,12.3125,89.875,0.06439208984375,-0.70343017578125,0.702392578125,0.08770751953125,-35.0,-224.0,-405.0,209.0,-957.0,2.0,311,257.8685257482029,-39.71506911957094,
332,7.986870050430298,0.02387213706970215,41.88983990332278,41.56822358492152,101796.25,219.0,-312.0,248.0,-9.1875,43.375,-20.5625,182.875,-10.375,52.8125,189.25,10.375,87.0625,0.06903076171875,-0.68560791015625,0.7222900390625,0.05877685546875,42.0,651.0,199.0,176.0,-963.0,49.0,273,259.38167317338264,-31.46702331873292,
333,8.010629892349243,0.023759841918945312,42.0878221080517,41.56976473448613,101796.25,-94.0,-853.0,500.0,-9.1875,43.375,-20.5625,206.75,72.6875,2.9375,189.625,10.0,82.6875,0.06121826171875,-0.6585693359375,0.74737548828125,0.06298828125,-265.0,104.0,378.0,171.0,-957.0,122.0,273,260.74350585604435,-24.364335718130526,
334,8.033677816390991,0.023047924041748047,43.38785559118651,41.574980679278035,101796.25,11.0,-757.0,677.0,-8.0,41.875,-26.6875,2.75,-15.75,-53.8125,190.25,10.9375,79.6875,0.06317138671875,-0.638916015625,0.7637939453125,0.06597900390625,-335.0,105.0,611.0,177.0,-949.0,172.0,320,266.6691552704399,-1.8470911746166898,
335,8.057627439498901,0.023949623107910156,41.75431051646557,41.57551369995253,101796.25,44.0,-737.0,350.0,-8.0,41.875,-26.6875,-134.5625,3.0625,-100.625,192.25,12.6875,81.6875,0.07635498046875,-0.6510009765625,0.75091552734375,0.08099365234375,-171.0,208.0,212.0,215.0,-946.0,138.0,250,265.0022397433959,-7.267396562320436,
336,8.079708814620972,0.022081375122070312,45.2870346376436,41.585657071202526,101796.25,310.0,-595.0,-404.0,-8.0,41.875,-26.6875,-142.9375,5.9375,-138.375,195.5625,15.125,84.375,0.08721923828125,-0.66717529296875,0.73291015625,0.1004638671875,53.0,346.0,-497.0,256.0,-941.0,92.0,245,263.0020157690563,-13.932741830051725,
337,8.102785587310791,0.023076772689819336,43.33361572873511,41.59063526594512,101796.25,454.0,-951.0,175.0,-9.1875,40.0625,-28.1875,-0.3125,-72.75,-155.6875,199.5,18.25,85.375,0.1063232421875,-0.6712646484375,0.723876953125,0.11883544921875,293.0,-204.0,-385.0,307.0,-928.0,74.0,278,264.5018141921507,-7.618787400692823,
338,8.126752376556396,0.02396678924560547,41.72440412239863,41.59102976670528,101796.25,615.0,-1177.0,153.0,-9.1875,40.0625,-28.1875,-9.0,-5.5625,-117.6875,201.625,22.375,85.8125,0.1376953125,-0.669189453125,0.71722412109375,0.13714599609375,241.0,-273.0,88.0,373.0,-904.0,65.0,282,266.25163277293564,-1.1684734001930988,
339,8.151928424835205,0.025176048278808594,39.72029243531952,41.58525226585917,101796.25,374.0,-964.0,-53.0,-14.25,40.375,-23.6875,-11.625,13.6875,-15.0625,203.3125,23.6875,86.0,0.1436767578125,-0.6690673828125,0.71453857421875,0.1455078125,218.0,-151.0,163.0,392.0,-896.0,62.0,,266.25163277293564,-1.1684734001930988,
340,8.175213098526001,0.0232846736907959,42.94670448378608,41.58912995935266,101796.25,377.0,-858.0,159.0,-14.25,40.375,-23.6875,14.125,23.375,5.5625,203.5625,23.5625,85.6875,0.1407470703125,-0.66778564453125,0.71551513671875,0.14923095703125,-15.0,37.0,92.0,393.0,-895.0,67.0,203,259.9264694956421,-22.80658897470738,
341,8.198298454284668,0.023085355758666992,43.31750441509083,41.593996839891034,101796.25,91.0,-882.0,-24.0,-18.6875,39.375,-24.0625,-2.125,16.5625,-11.5,203.9375,23.625,85.4375,0.1387939453125,-0.6666259765625,0.7164306640625,0.1519775390625,-302.0,12.0,-95.0,393.0,-895.0,71.0,203,254.2338225460779,-40.70936260643481,
342,8.222390413284302,0.02409195899963379,41.50762501360726,41.59374376671,101796.25,49.0,-850.0,-47.0,-18.6875,39.375,-24.0625,33.25,15.875,-86.375,205.3125,24.9375,84.8125,0.14508056640625,-0.66204833984375,0.7174072265625,0.1612548828125,-363.0,35.0,-127.0,413.0,-885.0,79.0,207,249.5104402914701,-53.13712395153502,
343,8.244409084320068,0.0220186710357666,45.41600164585883,41.603952022752864,101796.25,463.0,-1123.0,499.0,-16.875,39.0,-24.375,-1.5,23.125,-37.4375,207.4375,27.125,84.3125,0.1578369140625,-0.6566162109375,0.7164306640625,0.17523193359375,211.0,-83.0,85.0,447.0,-868.0,86.0,156,240.1593962623231,-82.8611165168713,
344,8.269291877746582,0.024882793426513672,40.18841385125424,41.599692583803375,101799.0,754.0,-936.0,167.0,-16.875,39.0,-24.375,5.1875,8.5,47.125,207.25,26.5625,84.0,0.15228271484375,-0.6561279296875,0.71832275390625,0.1741943359375,315.0,-64.0,76.0,438.0,-872.0,90.0,193,235.44345663609081,-91.39431786724579,
345,8.293263673782349,0.0239717960357666,41.715689492267146,41.600027874509166,101799.0,184.0,-1240.0,22.0,-19.875,36.0625,-25.1875,16.5625,-3.0625,43.75,206.25,25.6875,83.8125,0.14459228515625,-0.6556396484375,0.72271728515625,0.16412353515625,-354.0,-215.0,-85.0,416.0,-882.0,96.0,207,232.59911097248175,-93.5750796788095,
346,8.325076580047607,0.03181290626525879,31.433783247022852,41.56117924839814,101799.0,446.0,-742.0,133.0,-19.875,36.0625,-25.1875,24.3125,-35.25,71.1875,202.5,23.0625,83.4375,0.138427734375,-0.65460205078125,0.72882080078125,0.14520263671875,61.0,154.0,30.0,384.0,-896.0,102.0,179,227.2391998752336,-99.56765599684164,
347,8.346485137939453,0.021408557891845703,46.710292447156824,41.574386614874626,101799.0,1089.0,-525.0,402.0,-18.375,37.5,-25.1875,13.125,-41.0625,65.9375,201.5,22.4375,83.5,0.1375732421875,-0.655029296875,0.72991943359375,0.13861083984375,714.0,374.0,300.0,368.0,-903.0,100.0,203,224.81527988771026,-100.6600044359522,
348,8.36829400062561,0.021808862686157227,45.852918347490515,41.58553702510735,101799.0,757.0,-564.0,178.0,-18.375,37.5,-25.1875,-45.375,-1.9375,50.6875,200.4375,21.25,84.375,0.13006591796875,-0.6614990234375,0.72686767578125,0.13104248046875,243.0,352.0,106.0,355.0,-909.0,89.0,193,221.63375189893924,-104.2777915282259,
349,8.393018960952759,0.024724960327148438,40.44495872868934,41.58217700015564,101799.0,407.0,-636.0,151.0,-18.0625,38.25,-26.375,-23.0,-13.875,54.4375,199.0625,20.125,85.0,0.12579345703125,-0.6661376953125,0.7249755859375,0.121826171875,69.0,280.0,71.0,338.0,-917.0,79.0,217,221.17037670904534,-97.43486344046042,
350,8.415443181991577,0.02242422103881836,44.594637123354666,41.59020415573288,101799.0,-36.0,-1068.0,34.0,-18.0625,38.25,-26.375,-0.875,-2.75,36.375,197.5,18.9375,85.625,0.1212158203125,-0.67041015625,0.7235107421875,0.11151123046875,-89.0,-168.0,150.0,318.0,-924.0,70.0,278,226.85333903814083,-69.36570293708697,
351,8.441141843795776,0.02569866180419922,38.91253200727353,41.58205210803138,101799.0,139.0,-1071.0,176.0,-16.5625,40.75,-24.375,-17.125,-14.6875,4.8125,197.0625,18.6875,85.6875,0.1197509765625,-0.67108154296875,0.7232666015625,0.1104736328125,-103.0,-182.0,98.0,315.0,-926.0,69.0,165,220.66800513432676,-83.07140698274713,
352,8.463003396987915,0.021861553192138672,45.74240408314612,41.5927990913109,101799.0,254.0,-980.0,257.0,-16.5625,40.75,-24.375,-23.875,-0.1875,-10.25,197.3125,18.9375,86.6875,0.123291015625,-0.6763916015625,0.71783447265625,0.10955810546875,-108.0,-157.0,235.0,318.0,-925.0,53.0,189,217.5012046208941,-88.01425992301948,
353,8.48963713645935,0.026633739471435547,37.54636111359771,41.580104582328545,101799.0,186.0,-1149.0,166.0,-16.5625,40.75,-24.375,-25.5,16.5,-17.5,197.6875,19.125,86.875,0.123046875,-0.6776123046875,0.71636962890625,0.11187744140625,-134.0,-224.0,115.0,321.0,-925.0,50.0,221,217.8510841588047,-79.92218285104593,
354,8.513562440872192,0.023925304412841797,41.796751370204284,41.58071341563258,101799.0,196.0,-1089.0,159.0,-15.375,40.0625,-23.6875,2.875,8.4375,-42.9375,199.5625,20.625,87.3125,0.13055419921875,-0.67901611328125,0.71185302734375,0.1229248046875,24.0,-287.0,138.0,346.0,-916.0,42.0,212,217.26597574292424,-75.48485870161582,
355,8.53858494758606,0.025022506713867188,39.964021647991466,41.57597566565897,101799.0,307.0,-1186.0,308.0,-15.375,40.0625,-23.6875,6.25,9.3125,-35.5625,199.9375,21.0,87.1875,0.13214111328125,-0.67816162109375,0.71197509765625,0.12554931640625,-44.0,-272.0,263.0,351.0,-914.0,44.0,207,216.23937816863184,-72.7282274201103,
356,8.562073469161987,0.023488521575927734,42.57398647962809,41.57871353033875,101799.0,124.0,-1181.0,263.0,-16.5625,40.75,-23.25,-31.75,55.625,-40.5625,202.625,22.25,87.3125,0.13128662109375,-0.6793212890625,0.7078857421875,0.14202880859375,-385.0,-375.0,93.0,371.0,-906.0,41.0,175,212.11544035176865,-80.95576705513831,
357,8.587059736251831,0.02498626708984375,40.02198473282443,41.574183826026,101799.0,-101.0,-1430.0,146.0,-16.5625,40.75,-23.25,-32.3125,61.625,0.875,203.3125,22.1875,87.375,0.12713623046875,-0.68048095703125,0.70672607421875,0.1458740234375,-472.0,-523.0,106.0,370.0,-906.0,40.0,179,208.8038963165918,-85.0820708761612,
358,8.609092950820923,0.022033214569091797,45.386023762633364,41.58393945158448,101799.0,405.0,-1026.0,-101.0,-16.875,39.75,-24.0625,22.0,3.3125,69.375,201.4375,19.6875,87.125,0.10809326171875,-0.68182373046875,0.7108154296875,0.1348876953125,74.0,123.0,60.0,331.0,-921.0,45.0,175,205.42350668493262,-90.5493007380237,
359,8.633882522583008,0.02478957176208496,40.33954315941332,41.5803665455246,101799.0,546.0,-595.0,99.0,-16.875,39.75,-24.0625,30.0,-13.25,48.625,200.0625,18.625,86.625,0.1031494140625,-0.67950439453125,0.71527099609375,0.126708984375,232.0,332.0,45.0,313.0,-927.0,54.0,193,204.18115601643936,-87.31462535184659,
360,8.656854152679443,0.022971630096435547,43.531956408925794,41.58554523973052,101801.25,284.0,-744.0,123.0,-15.75,41.875,-24.375,17.625,-14.5,3.125,199.0,18.25,86.0625,0.10455322265625,-0.67584228515625,0.71954345703125,0.12066650390625,130.0,291.0,14.0,307.0,-929.0,63.0,170,200.76304041479543,-92.2332360734135,
361,8.680829763412476,0.023975610733032227,41.70905221706228,41.58588635403549,101801.25,479.0,-550.0,98.0,-15.75,41.875,-24.375,6.4375,7.625,20.125,198.75,17.9375,85.875,0.1026611328125,-0.675048828125,0.7208251953125,0.11907958984375,176.0,379.0,32.0,302.0,-930.0,66.0,236,204.28673637331588,-73.09697568906196,
362,8.705803394317627,0.024973630905151367,40.042235099811926,41.58145820709452,101801.25,512.0,-642.0,121.0,-14.0,41.5625,-24.375,-5.0625,2.8125,48.875,197.75,16.75,85.9375,0.094482421875,-0.67633056640625,0.7218017578125,0.11279296875,163.0,227.0,-2.0,283.0,-936.0,66.0,254,209.2580627359843,-51.32417611618801,
363,8.729310989379883,0.02350759506225586,42.53944299073004,41.58403801189205,101801.25,558.0,-694.0,66.0,-14.0,41.5625,-24.375,12.0,-23.6875,54.625,196.375,15.75,85.9375,0.090576171875,-0.67657470703125,0.72332763671875,0.10430908203125,291.0,246.0,0.0,266.0,-941.0,66.0,240,212.33225646238589,-36.756282925555396,
364,8.753282308578491,0.0239713191986084,41.71651930019991,41.58440081879555,101801.25,273.0,-943.0,186.0,-13.1875,43.375,-24.375,17.0,-14.0,59.75,193.9375,14.125,85.5,0.0849609375,-0.67437744140625,0.72802734375,0.08929443359375,253.0,77.0,179.0,239.0,-948.0,74.0,264,217.4990308161473,-16.5725929276337,
365,8.777960300445557,0.02467799186706543,40.52193571449274,41.58141384866745,101801.25,533.0,-861.0,165.0,-13.1875,43.375,-24.375,6.5,-4.0625,95.625,192.1875,12.5,85.375,0.0765380859375,-0.67462158203125,0.73004150390625,0.07806396484375,131.0,-95.0,104.0,212.0,-954.0,76.0,240,219.74912773453258,-7.952522879168076,
366,8.799118280410767,0.02115797996520996,47.26349120494011,41.59507672658699,101801.25,-170.0,-1134.0,184.0,-10.25,43.375,-24.375,1.0625,13.75,109.5,191.375,11.4375,85.375,0.06854248046875,-0.67523193359375,0.73077392578125,0.07305908203125,-65.0,-137.0,53.0,194.0,-957.0,77.0,245,222.27421496107934,2.2312339850533185,
367,8.82220983505249,0.023091554641723633,43.305875915046514,41.5995546310667,101801.25,-58.0,-984.0,128.0,-10.25,43.375,-24.375,4.5625,-4.5,50.9375,188.75,8.8125,85.3125,0.05322265625,-0.67669677734375,0.73187255859375,0.05633544921875,-215.0,-19.0,52.0,156.0,-964.0,76.0,231,223.1467934649714,5.075757379504013,
368,8.843677043914795,0.021467208862304688,46.58267436694803,41.61165069378188,101801.25,-3.0,-785.0,141.0,-6.875,43.375,-24.75,6.1875,-18.0,23.5625,188.6875,8.625,85.3125,0.05126953125,-0.67620849609375,0.73284912109375,0.0557861328125,-151.0,180.0,62.0,147.0,-966.0,78.0,207,221.53211411847428,-1.3475897872492757,
369,8.867124319076538,0.023447275161743164,42.64887894656566,41.61439342923629,101801.25,53.0,-835.0,129.0,-6.875,43.375,-24.75,-3.9375,-28.0,-19.6875,188.5625,9.25,85.4375,0.05902099609375,-0.67657470703125,0.73193359375,0.05511474609375,-68.0,-9.0,150.0,157.0,-964.0,76.0,240,223.37890270662686,5.061294430612122,
370,8.89102029800415,0.023895978927612305,41.848044937990764,41.6150214034555,101801.25,188.0,-986.0,146.0,-7.6875,43.0625,-25.5625,-16.125,-19.125,-43.75,189.0,10.125,85.75,0.06719970703125,-0.67779541015625,0.7298583984375,0.057861328125,14.0,-24.0,75.0,173.0,-962.0,70.0,207,221.7410124359642,-0.8270095758519753,
371,8.914005517959595,0.022985219955444336,43.50621842812244,41.61989795188297,101801.25,183.0,-998.0,146.0,-7.6875,43.0625,-25.5625,-7.8125,-18.1875,-19.0,189.1875,10.75,86.125,0.0736083984375,-0.6793212890625,0.727783203125,0.05865478515625,-81.0,-3.0,44.0,183.0,-961.0,64.0,207,220.2669111923678,-5.8914544649095975,
372,8.937958478927612,0.023952960968017578,41.74849202715347,41.62024257295868,101801.25,147.0,-1003.0,164.0,-8.75,44.1875,-25.5625,0.4375,-2.75,-6.5,189.1875,10.875,86.125,0.07501220703125,-0.67950439453125,0.72747802734375,0.0587158203125,-37.0,-43.0,100.0,185.0,-960.0,64.0,189,217.14022007313102,-15.862909248743048,
